time,gFx,gFy,gFz,ax,ay,az,wx,wy,wz,p,Bx,By,Bz,I,Azimuth,Pitch,Roll,Gain,Latitude,Longitude,Speed (m/s)
596.223847,-1.0044,0.0464,-0.0257,-0.0173,-0.0517,0.0749,-0.0157,-0.0131,-0.018,1001.845,48.3,5.52,26.76,56.0,283.4705,-176.7447,-88.4548,57.4311,59.9323375,10.7183187,0.0
596.24084,-1.0066,0.0445,-0.0244,-0.0173,-0.0517,0.0749,-0.0157,-0.0131,-0.018,1001.845,48.18,5.52,26.52,56.0,283.4705,-176.7447,-88.4548,57.4311,59.9323375,10.7183187,0.0
596.261893,-1.009,0.0454,-0.0261,-0.0173,-0.0517,0.0749,-0.0157,-0.0131,-0.018,1001.845,47.76,5.16,26.88,56.0,283.4705,-176.7447,-88.4548,57.4311,59.9323375,10.7183187,0.0
596.282549,-1.0095,0.0413,-0.0288,-0.1014,-0.0997,0.0424,0.0057,0.1775,-0.0144,1001.8477,48.0,4.8,27.84,56.0,283.3338,-176.8138,-88.2523,57.4311,59.9323375,10.7183187,0.0
596.300815,-1.0171,0.0391,-0.0391,-0.1014,-0.0997,0.0424,0.0057,0.1775,-0.0144,1001.8477,48.12,4.38,29.58,56.0,283.3338,-176.8138,-88.2523,57.4311,59.9323375,10.7183187,0.0
596.324462,-1.0234,0.0401,-0.0511,-0.1014,-0.0997,0.0424,0.0057,0.1775,-0.0144,1001.8477,47.28,4.08,30.6,56.0,283.3338,-176.8138,-88.2523,57.4311,59.9323375,10.7183187,0.0
596.340755,-1.0207,0.0489,-0.0511,-0.2455,-0.1411,-0.1061,0.0356,0.1365,-0.0119,1001.8477,46.86,3.9,30.36,55.0,282.5705,-176.8798,-87.6924,57.4311,59.9323375,10.7183187,0.0
596.36195,-1.0193,0.0557,-0.0357,-0.2455,-0.1411,-0.1061,0.0356,0.1365,-0.0119,1001.8477,47.58,4.74,28.74,55.0,282.5705,-176.8798,-87.6924,57.4311,59.9323375,10.7183187,0.0
596.381027,-1.0198,0.0635,-0.0379,-0.2455,-0.1411,-0.1061,0.0356,0.1365,-0.0119,1001.8445,47.58,4.5,28.86,55.0,282.5705,-176.8798,-87.6924,57.4311,59.9323375,10.7183187,0.0
596.401919,-1.0139,0.0618,-0.053,-0.2112,0.0949,0.0696,0.0191,-0.0437,0.0052,1001.8445,46.38,3.48,29.58,55.0,281.2709,-176.9158,-87.4207,57.4311,59.9323375,10.7183187,0.0
596.420679,-1.0088,0.0603,-0.0467,-0.2112,0.0949,0.0696,0.0191,-0.0437,0.0052,1001.8445,46.5,4.14,28.8,55.0,281.2709,-176.9158,-87.4207,57.4311,59.9323375,10.7183187,0.0
596.44144,-1.0134,0.0562,-0.0472,-0.2112,0.0949,0.0696,0.0191,-0.0437,0.0052,1001.8445,47.1,4.38,28.62,55.0,281.2709,-176.9158,-87.4207,57.4311,59.9323375,10.7183187,0.0
596.502955,-1.0066,0.0606,-0.0569,-0.1494,0.0166,-0.0198,0.0093,0.0828,0.0192,1001.8486,47.46,4.38,27.78,55.0,281.1714,-176.8782,-87.4115,57.2213,59.9323375,10.7183187,0.0
596.523783,-1.0129,0.0572,-0.0479,-0.084,0.05,-0.0911,-0.0389,-0.0064,-0.0058,1001.8486,48.54,5.1,28.2,55.0,281.9082,-176.8212,-87.2679,57.2213,59.9323375,10.7183187,0.0
596.541404,-1.0156,0.0437,-0.0393,-0.084,0.05,-0.0911,-0.0389,-0.0064,-0.0058,1001.8486,48.84,5.82,27.42,54.0,281.9082,-176.8212,-87.2679,57.2213,59.9323375,10.7183187,0.0
596.562303,-1.0093,0.0415,-0.0481,-0.084,0.05,-0.0911,-0.0389,-0.0064,-0.0058,1001.8486,48.3,5.58,26.58,54.0,281.9082,-176.8212,-87.2679,57.2213,59.9323375,10.7183187,0.0
596.581793,-1.0039,0.0491,-0.0513,-0.1101,-0.1287,0.0001,-0.0139,0.0046,-0.0162,1001.8491,48.24,5.52,26.64,54.0,283.9072,-176.8684,-87.2388,57.2213,59.9323375,10.7183187,0.0
596.620781,-1.0137,0.0555,-0.0479,-0.1101,-0.1287,0.0001,-0.0139,0.0046,-0.0162,1001.8491,47.46,4.32,27.72,54.0,283.9072,-176.8684,-87.2388,57.2213,59.9323375,10.7183187,0.0
596.642132,-1.0137,0.0486,-0.0447,-0.1528,0.0159,0.0032,-0.0231,0.0089,-0.0064,1001.8491,47.22,4.32,27.78,54.0,283.6781,-176.9162,-87.2348,57.2213,59.9323375,10.7183187,0.0
596.661587,-1.0085,0.0457,-0.045,-0.1528,0.0159,0.0032,-0.0231,0.0089,-0.0064,1001.8491,47.88,4.86,27.9,54.0,283.6781,-176.9162,-87.2348,57.2213,59.9323375,10.7183187,0.0
596.683316,-1.0029,0.0481,-0.0435,-0.1528,0.0159,0.0032,-0.0231,0.0089,-0.0064,1001.8525,47.88,4.5,28.26,54.0,283.6781,-176.9162,-87.2348,57.2213,59.9323375,10.7183187,0.0
596.701288,-1.0046,0.0528,-0.0493,-0.0475,-0.0547,0.0492,-0.0182,-0.0082,-0.0021,1001.8525,47.4,4.68,28.02,54.0,283.3679,-176.9235,-87.2176,57.2213,59.9323375,10.7183187,0.0
596.723427,-1.009,0.0501,-0.0464,-0.0475,-0.0547,0.0492,-0.0182,-0.0082,-0.0021,1001.8525,47.52,4.56,27.6,54.0,283.3679,-176.9235,-87.2176,57.2213,59.9323375,10.7183187,0.0
596.740717,-1.0115,0.0459,-0.045,-0.0475,-0.0547,0.0492,-0.0182,-0.0082,-0.0021,1001.8525,47.4,4.62,28.02,54.0,283.3679,-176.9235,-87.2176,57.2213,59.9323375,10.7183187,0.0
596.761392,-1.0075,0.0442,-0.0457,-0.131,-0.0736,0.0301,-0.0096,0.0046,-0.004,1001.8525,46.8,4.5,28.2,54.0,283.2258,-176.9387,-87.2454,57.2213,59.9323375,10.7183187,0.0
596.781813,-1.0093,0.0464,-0.0476,-0.131,-0.0736,0.0301,-0.0096,0.0046,-0.004,1001.8511,46.5,4.38,27.84,54.0,283.2258,-176.9387,-87.2454,57.2213,59.9323375,10.7183187,0.0
596.807409,-1.0122,0.0467,-0.0472,-0.1089,-0.0617,0.0007,-0.0005,-0.0046,-0.0082,1001.8511,46.5,3.24,29.7,55.0,281.8525,-176.9805,-87.2633,57.505,59.9323375,10.7183187,0.0
596.821717,-1.0107,0.0469,-0.0486,-0.1089,-0.0617,0.0007,-0.0005,-0.0046,-0.0082,1001.8511,46.5,3.24,29.7,55.0,281.8525,-176.9805,-87.2633,57.505,59.9323375,10.7183187,0.0
596.841278,-1.0105,0.0432,-0.0493,-0.1089,-0.0617,0.0007,-0.0005,-0.0046,-0.0082,1001.8511,45.54,2.82,29.22,55.0,281.8525,-176.9805,-87.2633,57.505,59.9323375,10.7183187,0.0
596.866838,-1.0095,0.0447,-0.0462,-0.12,-0.0808,-0.0206,0.0118,-0.0131,-0.0076,1001.8618,48.12,5.28,28.14,55.0,281.5069,-177.051,-87.29,57.505,59.9323375,10.7183187,0.0
596.881841,-1.011,0.0437,-0.0447,-0.12,-0.0808,-0.0206,0.0118,-0.0131,-0.0076,1001.8618,48.12,5.28,28.14,55.0,281.5069,-177.051,-87.29,57.505,59.9323375,10.7183187,0.0
596.901034,-1.0056,0.0437,-0.0442,-0.12,-0.0808,-0.0206,0.0118,-0.0131,-0.0076,1001.8618,46.8,4.2,28.56,55.0,281.5069,-177.051,-87.29,57.505,59.9323375,10.7183187,0.0
596.924749,-1.0041,0.0496,-0.044,-0.0712,-0.0656,0.0207,0.0191,-0.0205,-0.0009,1001.8618,45.54,2.76,30.78,55.0,280.5674,-177.1118,-87.3426,57.505,59.9323375,10.7183187,0.0
596.940429,-1.0097,0.0464,-0.0462,-0.0712,-0.0656,0.0207,0.0191,-0.0205,-0.0009,1001.8618,45.54,2.76,30.78,55.0,280.5674,-177.1118,-87.3426,57.505,59.9323375,10.7183187,0.0
596.961037,-1.0122,0.0459,-0.0435,-0.0712,-0.0656,0.0207,0.0191,-0.0205,-0.0009,1001.8618,44.64,2.16,31.56,55.0,280.5674,-177.1118,-87.3426,57.505,59.9323375,10.7183187,0.0
596.982954,-1.0129,0.0481,-0.0447,-0.0712,-0.0656,0.0207,0.0191,-0.0205,-0.0009,1001.8767,45.6,3.78,30.24,55.0,280.5674,-177.1118,-87.3426,57.505,59.9323375,10.7183187,0.0
597.000714,-1.009,0.0513,-0.0481,-0.1426,-0.0181,0.0107,0.0118,-0.0027,0.0003,1001.8767,46.26,4.56,27.66,55.0,279.7947,-177.1371,-87.3737,57.505,59.9323375,10.7183187,0.0
597.022777,-1.0066,0.0486,-0.0511,-0.1426,-0.0181,0.0107,0.0118,-0.0027,0.0003,1001.8767,46.56,4.74,27.18,55.0,279.7947,-177.1371,-87.3737,57.505,59.9323375,10.7183187,0.0
597.041831,-1.0075,0.0474,-0.0489,-0.1426,-0.0181,0.0107,0.0118,-0.0027,0.0003,1001.8767,46.92,4.74,27.36,55.0,279.7947,-177.1371,-87.3737,57.505,59.9323375,10.7183187,0.0
597.060873,-1.0137,0.0457,-0.0391,-0.0896,-0.0255,-0.0362,0.0124,-0.0052,0.007,1001.8767,47.34,4.74,27.48,55.0,281.107,-177.136,-87.4097,57.505,59.9323375,10.7183187,0.0
597.080748,-1.0051,0.0428,-0.0406,-0.0896,-0.0255,-0.0362,0.0124,-0.0052,0.007,1001.8782,46.8,4.8,28.56,55.0,281.107,-177.136,-87.4097,57.505,59.9323375,10.7183187,0.0
597.109415,-0.9978,0.0464,-0.0547,-0.0652,-0.0711,0.0357,0.0026,0.0137,0.004,1001.8782,47.34,4.68,27.84,55.0,281.1285,-177.1355,-87.4655,57.3748,59.9323375,10.7183187,0.0
597.12101,-1.0141,0.0567,-0.0435,-0.0652,-0.0711,0.0357,0.0026,0.0137,0.004,1001.8782,47.34,4.68,27.84,55.0,281.1285,-177.1355,-87.4655,57.3748,59.9323375,10.7183187,0.0
597.140443,-1.019,0.0498,-0.0342,-0.0652,-0.0711,0.0357,0.0026,0.0137,0.004,1001.8782,47.16,4.56,26.52,55.0,281.1285,-177.1355,-87.4655,57.3748,59.9323375,10.7183187,0.0
597.161594,-1.0173,0.0474,-0.0511,-0.0652,-0.0711,0.0357,0.0026,0.0137,0.004,1001.8782,47.4,4.98,26.94,55.0,281.1285,-177.1355,-87.4655,57.3748,59.9323375,10.7183187,0.0
597.181563,-1.0093,0.0557,-0.0474,-0.1862,-0.0306,-0.0462,0.0252,0.0076,0.0174,1001.8804,47.64,4.98,28.32,55.0,281.6349,-177.1063,-87.342,57.3748,59.9323375,10.7183187,0.0
597.227275,-1.011,0.0435,-0.0425,-0.0954,0.0415,0.0042,-0.0218,0.0119,0.0003,1001.8804,46.98,4.56,27.54,55.0,281.9017,-177.0798,-87.3413,57.3748,59.9323375,10.7183187,0.0
597.240561,-1.0105,0.0374,-0.0428,-0.0954,0.0415,0.0042,-0.0218,0.0119,0.0003,1001.8804,46.98,4.56,27.54,55.0,281.9017,-177.0798,-87.3413,57.3748,59.9323375,10.7183187,0.0
597.261369,-1.009,0.0425,-0.0542,-0.0954,0.0415,0.0042,-0.0218,0.0119,0.0003,1001.8804,47.16,4.5,27.18,55.0,281.9017,-177.0798,-87.3413,57.3748,59.9323375,10.7183187,0.0
597.281053,-1.0036,0.0525,-0.0579,-0.0954,0.0415,0.0042,-0.0218,0.0119,0.0003,1001.8892,46.92,3.9,28.26,55.0,281.9017,-177.0798,-87.3413,57.3748,59.9323375,10.7183187,0.0
597.32088,-1.0168,0.0508,-0.0501,-0.0523,0.0155,-0.1139,-0.0133,0.0027,0.0064,1001.8892,47.28,4.44,28.02,55.0,281.8732,-177.0816,-87.3459,57.3748,59.9323375,10.7183187,0.0
597.344226,-1.0124,0.0445,-0.0467,-0.0523,0.0155,-0.1139,-0.0133,0.0027,0.0064,1001.8892,47.16,4.62,28.68,55.0,281.8732,-177.0816,-87.3459,57.3748,59.9323375,10.7183187,0.0
597.361101,-1.0112,0.0437,-0.0484,-0.1385,-0.0643,-0.0043,-0.0151,-0.0345,0.0058,1001.8892,47.88,4.86,28.38,55.0,281.9061,-177.0774,-87.3492,57.3748,59.9323375,10.7183187,0.0
597.421541,-1.0115,0.0486,-0.0432,-0.1184,-0.0011,0.0291,-0.0188,-0.037,0.0034,1001.874,47.34,4.86,28.14,55.0,282.4606,-177.0689,-87.4759,57.7306,59.9323375,10.7183187,0.0
597.443201,-1.0127,0.0442,-0.0388,-0.1184,-0.0011,0.0291,-0.0188,-0.037,0.0034,1001.874,47.22,5.22,27.66,55.0,282.4606,-177.0689,-87.4759,57.7306,59.9323375,10.7183187,0.0
597.461777,-1.0117,0.0452,-0.0386,-0.1184,-0.0011,0.0291,-0.0188,-0.037,0.0034,1001.874,47.28,5.16,27.54,55.0,282.4606,-177.0689,-87.4759,57.7306,59.9323375,10.7183187,0.0
597.481182,-1.0075,0.0445,-0.042,-0.1295,-0.0594,0.0316,-0.0078,-0.0412,0.0034,1001.8752,47.16,5.28,27.66,55.0,282.8962,-177.0638,-87.6017,57.7306,59.9323375,10.7183187,0.0
597.524264,-1.0093,0.0496,-0.0384,-0.1295,-0.0594,0.0316,-0.0078,-0.0412,0.0034,1001.8752,47.94,5.58,27.48,55.0,282.8962,-177.0638,-87.6017,57.7306,59.9323375,10.7183187,0.0
597.543256,-1.009,0.0491,-0.0381,-0.1047,-0.0167,0.0117,0.0008,-0.0333,0.0046,1001.8752,47.76,5.1,27.42,55.0,283.424,-177.0614,-87.7319,57.7306,59.9323375,10.7183187,0.0
597.56308,-1.0097,0.0474,-0.0371,-0.1047,-0.0167,0.0117,0.0008,-0.0333,0.0046,1001.8752,47.4,4.44,28.02,55.0,283.424,-177.0614,-87.7319,57.7306,59.9323375,10.7183187,0.0
597.581701,-1.0085,0.0484,-0.0332,-0.1047,-0.0167,0.0117,0.0008,-0.0333,0.0046,1001.8555,46.62,4.08,30.0,55.0,283.424,-177.0614,-87.7319,57.7306,59.9323375,10.7183187,0.0
597.602384,-1.0093,0.0493,-0.033,-0.0968,-0.028,0.0436,-0.0084,-0.0272,-0.0003,1001.8555,46.62,4.32,30.0,55.0,282.3047,-177.0656,-87.8397,57.7306,59.9323375,10.7183187,0.0
597.623421,-1.009,0.0501,-0.0313,-0.0968,-0.028,0.0436,-0.0084,-0.0272,-0.0003,1001.8555,47.46,4.38,29.7,55.0,282.3047,-177.0656,-87.8397,57.7306,59.9323375,10.7183187,0.0
597.642511,-1.008,0.0486,-0.0325,-0.0968,-0.028,0.0436,-0.0084,-0.0272,-0.0003,1001.8555,47.28,4.14,30.0,55.0,282.3047,-177.0656,-87.8397,57.7306,59.9323375,10.7183187,0.0
597.661673,-1.0083,0.0506,-0.0322,-0.0911,-0.0236,0.0299,-0.0078,-0.0351,0.0034,1001.8555,46.98,4.14,29.88,55.0,281.8382,-177.0773,-87.9619,57.7306,59.9323375,10.7183187,0.0
597.680786,-1.0071,0.0496,-0.0325,-0.0911,-0.0236,0.0299,-0.0078,-0.0351,0.0034,1001.8621,47.1,4.38,29.64,55.0,281.8382,-177.0773,-87.9619,57.7306,59.9323375,10.7183187,0.0
597.700659,-1.0063,0.0498,-0.0347,-0.0911,-0.0236,0.0299,-0.0078,-0.0351,0.0034,1001.8621,46.5,4.02,29.52,55.0,281.8382,-177.0773,-87.9619,57.892,59.9323375,10.7183187,0.0
597.720263,-1.0054,0.0489,-0.0325,-0.0741,-0.0128,-0.0013,-0.0121,0.0137,0.0046,1001.8621,46.26,3.96,29.34,55.0,281.4612,-177.0701,-88.0183,57.892,59.9323375,10.7183187,0.0
597.743669,-1.0095,0.0489,-0.0244,-0.0741,-0.0128,-0.0013,-0.0121,0.0137,0.0046,1001.8621,46.14,3.96,29.4,55.0,281.4612,-177.0701,-88.0183,57.892,59.9323375,10.7183187,0.0
597.761828,-1.0078,0.0464,-0.021,-0.0741,-0.0128,-0.0013,-0.0121,0.0137,0.0046,1001.8621,46.02,3.84,29.7,55.0,281.4612,-177.0701,-88.0183,57.892,59.9323375,10.7183187,0.0
597.781035,-1.0014,0.045,-0.0442,-0.0884,-0.0472,0.1322,-0.0212,-0.0229,-0.0009,1001.875,44.22,1.68,30.78,55.0,279.3943,-177.065,-88.0218,57.892,59.9323375,10.7183187,0.0
597.800585,-1.0068,0.0498,-0.0305,-0.0884,-0.0472,0.1322,-0.0212,-0.0229,-0.0009,1001.875,44.52,1.62,31.14,55.0,279.3943,-177.065,-88.0218,57.892,59.9323375,10.7183187,0.0
597.824356,-1.021,0.0472,-0.0144,-0.0792,-0.0092,0.0554,-0.0047,0.0418,0.0034,1001.875,46.2,3.0,30.24,55.0,278.0716,-177.0917,-87.9244,57.892,59.9323375,10.7183187,0.0
597.843144,-1.0134,0.0415,-0.034,-0.0792,-0.0092,0.0554,-0.0047,0.0418,0.0034,1001.875,46.2,3.0,30.24,55.0,278.0716,-177.0917,-87.9244,57.892,59.9323375,10.7183187,0.0
597.862932,-1.0049,0.0476,-0.0381,-0.0792,-0.0092,0.0554,-0.0047,0.0418,0.0034,1001.875,46.14,3.36,30.18,55.0,278.0716,-177.0917,-87.9244,57.892,59.9323375,10.7183187,0.0
597.881384,-1.0078,0.0567,-0.0318,-0.0792,-0.0092,0.0554,-0.0047,0.0418,0.0034,1001.8813,46.32,3.9,30.36,55.0,278.0716,-177.0917,-87.9244,57.892,59.9323375,10.7183187,0.0
597.901869,-1.0085,0.0467,-0.031,-0.0887,0.0574,0.0399,-0.042,0.0327,0.0015,1001.8813,46.2,4.26,30.78,55.0,278.5151,-177.0886,-87.9453,57.892,59.9323375,10.7183187,0.0
597.921393,-1.0117,0.0337,-0.0283,-0.0887,0.0574,0.0399,-0.042,0.0327,0.0015,1001.8813,45.9,3.96,30.78,55.0,278.5151,-177.0886,-87.9453,57.892,59.9323375,10.7183187,0.0
597.942885,-1.0117,0.0398,-0.0335,-0.0887,0.0574,0.0399,-0.042,0.0327,0.0015,1001.8813,46.26,3.78,31.62,56.0,278.5151,-177.0886,-87.9453,57.892,59.9323375,10.7183187,0.0
597.961451,-1.0068,0.0491,-0.0393,-0.1276,-0.1052,0.042,0.0014,-0.0082,0.004,1001.8813,46.98,4.32,31.32,56.0,278.7656,-177.1039,-87.8349,57.892,59.9323375,10.7183187,0.0
597.981383,-1.0102,0.0557,-0.0379,-0.1276,-0.1052,0.042,0.0014,-0.0082,0.004,1001.8647,46.8,4.2,30.42,56.0,278.7656,-177.1039,-87.8349,57.892,59.9323375,10.7183187,0.0
598.001999,-1.0146,0.0537,-0.0342,-0.1276,-0.1052,0.042,0.0014,-0.0082,0.004,1001.8647,46.44,3.48,30.42,56.0,278.7656,-177.1039,-87.8349,57.6532,59.9323375,10.7183187,0.0
598.02049,-1.0151,0.0452,-0.0283,-0.1562,0.0313,0.0315,-0.0139,0.0235,0.004,1001.8647,46.74,3.6,30.24,56.0,278.9757,-177.1044,-87.8543,57.6532,59.9323375,10.7183187,0.0
598.041302,-1.0144,0.042,-0.0313,-0.1562,0.0313,0.0315,-0.0139,0.0235,0.004,1001.8647,46.56,3.72,28.8,56.0,278.9757,-177.1044,-87.8543,57.6532,59.9323375,10.7183187,0.0
598.066128,-1.0105,0.0489,-0.0271,-0.1537,-0.0884,0.051,-0.0188,-0.0363,0.0137,1001.8496,46.32,3.24,30.78,56.0,279.0884,-177.0763,-87.9085,57.6532,59.9323375,10.7183187,0.0
598.081264,-1.0119,0.0513,-0.0325,-0.1537,-0.0884,0.051,-0.0188,-0.0363,0.0137,1001.8496,46.32,3.24,30.78,56.0,279.0884,-177.0763,-87.9085,57.6532,59.9323375,10.7183187,0.0
598.101817,-1.0102,0.0459,-0.0322,-0.1537,-0.0884,0.051,-0.0188,-0.0363,0.0137,1001.8496,46.92,3.48,29.7,56.0,279.0884,-177.0763,-87.9085,57.6532,59.9323375,10.7183187,0.0
598.123159,-1.0149,0.0423,-0.0327,-0.1537,-0.0884,0.051,-0.0188,-0.0363,0.0137,1001.8496,46.2,3.6,29.04,56.0,279.0884,-177.0763,-87.9085,57.6532,59.9323375,10.7183187,0.0
598.144339,-1.0168,0.0474,-0.031,-0.1585,-0.0927,0.0278,-0.009,0.0021,0.0144,1001.8496,47.04,4.5,28.14,57.0,279.4114,-177.0369,-87.9597,57.6532,59.9323375,10.7183187,0.0
598.161555,-1.0117,0.052,-0.03,-0.1585,-0.0927,0.0278,-0.009,0.0021,0.0144,1001.8496,47.34,4.86,28.86,57.0,279.4114,-177.0369,-87.9597,57.6532,59.9323375,10.7183187,0.0
598.181036,-1.0105,0.0513,-0.0332,-0.1585,-0.0927,0.0278,-0.009,0.0021,0.0144,1001.8708,46.44,4.08,29.7,57.0,279.4114,-177.0369,-87.9597,57.6532,59.9323375,10.7183187,0.0
598.20095,-1.0124,0.0459,-0.0315,-0.1149,-0.0072,0.0045,-0.006,-0.037,0.0095,1001.8708,47.22,4.68,29.22,57.0,280.2676,-177.019,-88.0682,57.6532,59.9323375,10.7183187,0.0
598.22081,-1.0139,0.0457,-0.0247,-0.1149,-0.0072,0.0045,-0.006,-0.037,0.0095,1001.8708,47.34,4.74,30.0,57.0,280.2676,-177.019,-88.0682,57.6532,59.9323375,10.7183187,0.0
598.243581,-1.0095,0.0481,-0.0249,-0.1149,-0.0072,0.0045,-0.006,-0.037,0.0095,1001.8708,46.86,3.9,29.94,57.0,280.2676,-177.019,-88.0682,57.6532,59.9323375,10.7183187,0.0
598.261094,-1.0071,0.0489,-0.0266,-0.1051,-0.0412,0.0731,-0.0023,-0.0302,0.0095,1001.8708,47.46,4.5,28.08,57.0,280.5778,-177.0025,-88.1434,57.6532,59.9323375,10.7183187,0.0
598.280914,-1.0075,0.0462,-0.0269,-0.1051,-0.0412,0.0731,-0.0023,-0.0302,0.0095,1001.8708,48.24,5.64,26.94,57.0,280.5778,-177.0025,-88.1434,57.6532,59.9323375,10.7183187,0.0
598.301315,-1.01,0.0479,-0.0249,-0.1051,-0.0412,0.0731,-0.0023,-0.0302,0.0095,1001.8708,47.64,4.74,27.06,57.0,280.5778,-177.0025,-88.1434,57.9308,59.9323375,10.7183187,0.0
598.322629,-1.0071,0.0457,-0.0254,-0.1094,-0.0461,0.0551,0.0032,-0.0052,0.0107,1001.8708,47.04,4.26,27.24,57.0,282.2959,-176.9877,-88.2488,57.9308,59.9323375,10.7183187,0.0
598.341435,-1.0088,0.0484,-0.0242,-0.1094,-0.0461,0.0551,0.0032,-0.0052,0.0107,1001.8708,47.04,4.86,26.52,57.0,282.2959,-176.9877,-88.2488,57.9308,59.9323375,10.7183187,0.0
598.360679,-1.0078,0.0501,-0.0274,-0.1094,-0.0461,0.0551,0.0032,-0.0052,0.0107,1001.8708,47.52,5.52,25.62,58.0,282.2959,-176.9877,-88.2488,57.9308,59.9323375,10.7183187,0.0
598.381133,-1.0071,0.0498,-0.0332,-0.0875,-0.0236,0.0213,0.0063,-0.0082,0.0052,1001.8679,48.18,5.88,26.16,58.0,283.8185,-176.9932,-88.3063,57.9308,59.9323375,10.7183187,0.0
598.401039,-1.0102,0.0481,-0.0266,-0.0875,-0.0236,0.0213,0.0063,-0.0082,0.0052,1001.8679,47.1,4.62,28.5,58.0,283.8185,-176.9932,-88.3063,57.9308,59.9323375,10.7183187,0.0
598.42103,-1.0122,0.0493,-0.0183,-0.0875,-0.0236,0.0213,0.0063,-0.0082,0.0052,1001.8679,46.8,4.02,28.92,58.0,283.8185,-176.9932,-88.3063,57.9308,59.9323375,10.7183187,0.0
598.441395,-1.0046,0.045,-0.0171,-0.1307,-0.03,0.115,0.005,-0.0058,0.0009,1001.8679,47.22,4.68,27.66,58.0,282.9084,-176.9978,-88.2764,57.9308,59.9323375,10.7183187,0.0
598.460597,-0.9951,0.0447,-0.0352,-0.1307,-0.03,0.115,0.005,-0.0058,0.0009,1001.8679,47.04,5.16,27.36,58.0,282.9084,-176.9978,-88.2764,57.9308,59.9323375,10.7183187,0.0
598.481429,-1.0039,0.0525,-0.0264,-0.1307,-0.03,0.115,0.005,-0.0058,0.0009,1001.8752,46.8,4.5,27.18,58.0,282.9084,-176.9978,-88.2764,57.9308,59.9323375,10.7183187,0.0
598.501434,-1.0171,0.053,-0.0191,-0.049,0.0043,0.0309,0.0087,0.0822,-0.0015,1001.8752,46.26,3.84,27.12,58.0,282.9696,-177.0163,-88.3063,57.9308,59.9323375,10.7183187,0.0
598.521549,-1.0144,0.043,-0.0308,-0.049,0.0043,0.0309,0.0087,0.0822,-0.0015,1001.8752,46.5,3.96,26.94,58.0,282.9696,-177.0163,-88.3063,57.9308,59.9323375,10.7183187,0.0
598.542819,-1.009,0.0491,-0.034,-0.049,0.0043,0.0309,0.0087,0.0822,-0.0015,1001.8752,47.34,4.74,26.64,58.0,282.9696,-177.0163,-88.3063,57.9308,59.9323375,10.7183187,0.0
598.562211,-1.0075,0.0608,-0.0276,-0.1006,-0.0303,-0.0051,0.0258,0.0315,0.0076,1001.8752,47.88,5.94,26.28,58.0,283.1902,-177.0099,-88.0822,57.9308,59.9323375,10.7183187,0.0
598.581825,-1.01,0.0533,-0.0244,-0.1006,-0.0303,-0.0051,0.0258,0.0315,0.0076,1001.8723,47.7,6.24,26.58,58.0,283.1902,-177.0099,-88.0822,57.9308,59.9323375,10.7183187,0.0
598.602516,-1.0171,0.0408,-0.0266,-0.1006,-0.0303,-0.0051,0.0258,0.0315,0.0076,1001.8723,47.7,5.7,26.82,58.0,283.1902,-177.0099,-88.0822,63.8827,59.9323375,10.7183187,0.0
598.62179,-1.0149,0.043,-0.033,-0.1801,-0.1093,0.0844,0.0099,0.0565,-0.0064,1001.8723,47.7,4.8,26.88,58.0,284.3848,-177.024,-87.9792,63.8827,59.9323375,10.7183187,0.0
598.640926,-1.0054,0.054,-0.0369,-0.1801,-0.1093,0.0844,0.0099,0.0565,-0.0064,1001.8723,47.52,4.74,26.88,58.0,284.3848,-177.024,-87.9792,63.8827,59.9323375,10.7183187,0.0
598.670618,-1.0041,0.0589,-0.0396,-0.0656,0.0247,0.0043,0.0008,0.0241,-0.0009,1001.8735,47.58,5.34,25.92,58.0,284.3712,-177.0513,-87.8595,63.8827,59.9323375,10.7183187,0.0
598.681374,-1.0078,0.0542,-0.043,-0.0656,0.0247,0.0043,0.0008,0.0241,-0.0009,1001.8735,47.58,5.34,25.92,58.0,284.3712,-177.0513,-87.8595,63.8827,59.9323375,10.7183187,0.0
598.702223,-1.0115,0.0464,-0.0381,-0.0656,0.0247,0.0043,0.0008,0.0241,-0.0009,1001.8735,47.58,5.88,25.62,58.0,284.3712,-177.0513,-87.8595,63.8827,59.9323375,10.7183187,0.0
598.721096,-1.0137,0.0442,-0.0398,-0.0656,0.0247,0.0043,0.0008,0.0241,-0.0009,1001.8735,47.64,5.4,27.3,58.0,284.3712,-177.0513,-87.8595,63.8827,59.9323375,10.7183187,0.0
598.740758,-1.0112,0.0523,-0.0347,-0.1478,-0.0718,-0.0059,-0.0023,0.0278,0.0064,1001.8735,47.76,4.86,27.72,58.0,284.5191,-177.0475,-87.7506,63.8827,59.9323375,10.7183187,0.0
598.782004,-1.0102,0.0486,-0.0357,-0.1478,-0.0718,-0.0059,-0.0023,0.0278,0.0064,1001.8611,45.9,3.66,27.66,58.0,284.5191,-177.0475,-87.7506,63.8827,59.9323375,10.7183187,0.0
598.801564,-1.0117,0.0428,-0.0332,-0.1146,-0.0319,0.0403,-0.0151,-0.004,0.007,1001.8611,47.46,6.42,26.52,58.0,283.9537,-177.0286,-87.7186,63.8827,59.9323375,10.7183187,0.0
598.825262,-1.0117,0.0415,-0.0371,-0.1146,-0.0319,0.0403,-0.0151,-0.004,0.007,1001.8611,47.4,6.24,26.76,58.0,283.9537,-177.0286,-87.7186,63.8827,59.9323375,10.7183187,0.0
598.841739,-1.0061,0.0459,-0.0413,-0.1146,-0.0319,0.0403,-0.0151,-0.004,0.007,1001.8611,46.86,4.56,28.92,58.0,283.9537,-177.0286,-87.7186,63.8827,59.9323375,10.7183187,0.0
598.862594,-1.0029,0.0515,-0.0415,-0.074,-0.0648,-0.0205,-0.0005,-0.0131,0.0254,1001.8611,46.86,4.26,30.18,58.0,283.2843,-176.9903,-87.7518,63.8827,59.9323375,10.7183187,0.0
598.881169,-1.0007,0.052,-0.041,-0.074,-0.0648,-0.0205,-0.0005,-0.0131,0.0254,1001.8699,47.16,4.56,28.38,58.0,283.2843,-176.9903,-87.7518,63.8827,59.9323375,10.7183187,0.0
598.900909,-1.0066,0.0496,-0.034,-0.074,-0.0648,-0.0205,-0.0005,-0.0131,0.0254,1001.8699,47.58,5.64,27.42,58.0,283.2843,-176.9903,-87.7518,59.8172,59.9323375,10.7183187,0.0
598.925475,-1.0129,0.0472,-0.033,-0.079,-0.041,0.0383,-0.0121,-0.0357,0.0247,1001.8699,47.46,5.22,28.38,58.0,283.2271,-176.9196,-87.8283,59.8172,59.9323375,10.7183187,0.0
598.941331,-1.0117,0.0523,-0.0364,-0.079,-0.041,0.0383,-0.0121,-0.0357,0.0247,1001.8699,47.22,4.5,27.72,58.0,283.2271,-176.9196,-87.8283,59.8172,59.9323375,10.7183187,0.0
598.980441,-1.0056,0.0562,-0.0374,-0.0938,0.0032,-0.0417,0.0014,0.0168,0.0363,1001.876,47.1,4.86,28.14,58.0,283.1559,-176.8278,-87.8897,59.8172,59.9323375,10.7183187,0.0
599.001244,-1.0071,0.0547,-0.0313,-0.0938,0.0032,-0.0417,0.0014,0.0168,0.0363,1001.876,46.62,4.44,29.04,58.0,283.1559,-176.8278,-87.8897,59.8172,59.9323375,10.7183187,0.0
599.023954,-1.0068,0.0523,-0.0293,-0.0938,0.0032,-0.0417,0.0014,0.0168,0.0363,1001.876,46.44,4.5,28.56,58.0,283.1559,-176.8278,-87.8897,59.8172,59.9323375,10.7183187,0.0
599.041542,-1.0093,0.0503,-0.03,-0.0823,-0.0448,0.0629,-0.0053,-0.0541,0.0229,1001.876,46.98,4.38,28.2,58.0,282.9435,-176.743,-87.9501,59.8172,59.9323375,10.7183187,0.0
599.080736,-1.0073,0.0567,-0.0366,-0.0823,-0.0448,0.0629,-0.0053,-0.0541,0.0229,1001.8835,46.92,4.62,28.44,58.0,282.9435,-176.743,-87.9501,59.8172,59.9323375,10.7183187,0.0
599.100476,-1.0134,0.0557,-0.0222,-0.0874,-0.0151,-0.021,0.0087,0.0168,0.0333,1001.8835,46.98,4.68,28.2,58.0,282.8847,-176.6645,-88.0208,59.8172,59.9323375,10.7183187,0.0
599.121396,-1.0097,0.0513,-0.0198,-0.0874,-0.0151,-0.021,0.0087,0.0168,0.0333,1001.8835,47.28,4.68,27.12,58.0,282.8847,-176.6645,-88.0208,59.8172,59.9323375,10.7183187,0.0
599.14196,-1.0032,0.0518,-0.0318,-0.0874,-0.0151,-0.021,0.0087,0.0168,0.0333,1001.8835,47.94,4.62,27.18,58.0,282.8847,-176.6645,-88.0208,59.8172,59.9323375,10.7183187,0.0
599.162223,-1.0029,0.0562,-0.032,-0.0465,-0.0736,0.0021,0.0111,-0.0638,0.0162,1001.8835,48.18,4.92,26.64,58.0,283.3895,-176.6025,-88.1655,59.8172,59.9323375,10.7183187,0.0
599.181921,-1.0041,0.0564,-0.0325,-0.0465,-0.0736,0.0021,0.0111,-0.0638,0.0162,1001.8782,48.54,5.16,26.46,58.0,283.3895,-176.6025,-88.1655,59.8172,59.9323375,10.7183187,0.0
599.201162,-1.0054,0.055,-0.0381,-0.0465,-0.0736,0.0021,0.0111,-0.0638,0.0162,1001.8782,49.02,5.76,26.64,58.0,283.3895,-176.6025,-88.1655,59.2577,59.9323375,10.7183187,0.0
599.225059,-1.0102,0.0584,-0.0252,-0.0687,-0.0534,-0.0604,0.0619,0.0254,0.04,1001.8782,49.14,6.6,26.04,58.0,285.596,-176.5386,-88.1671,59.2577,59.9323375,10.7183187,0.0
599.241981,-1.0085,0.0701,-0.02,-0.0687,-0.0534,-0.0604,0.0619,0.0254,0.04,1001.8782,48.36,5.82,26.34,58.0,285.596,-176.5386,-88.1671,59.2577,59.9323375,10.7183187,0.0
599.265837,-0.9992,0.0547,-0.033,-0.1004,0.0843,0.1143,0.0619,0.0254,0.04,1001.8438,47.04,4.5,27.48,58.0,285.4644,-176.4754,-88.1816,59.2577,59.9323375,10.7183187,0.0
599.281033,-1.0068,0.0457,-0.0237,-0.1004,0.0843,0.1143,0.0087,0.0302,0.015,1001.8438,47.04,4.5,27.48,58.0,285.4644,-176.4754,-88.1816,59.2577,59.9323375,10.7183187,0.0
599.301236,-1.0254,0.0537,-0.0257,-0.1004,0.0843,0.1143,0.0087,0.0302,0.015,1001.8438,47.82,4.5,28.2,58.0,285.4644,-176.4754,-88.1816,59.2577,59.9323375,10.7183187,0.0
599.321662,-1.0181,0.0652,-0.0359,-0.1004,0.0843,0.1143,0.0087,0.0302,0.015,1001.8438,47.76,4.44,27.42,58.0,285.4644,-176.4754,-88.1816,59.2577,59.9323375,10.7183187,0.0
599.341295,-0.9975,0.0647,-0.0437,-0.1948,0.0303,-0.0207,0.0124,0.0217,0.026,1001.8438,47.4,4.56,27.24,58.0,284.5648,-176.4397,-88.0603,59.2577,59.9323375,10.7183187,0.0
599.361786,-1.0029,0.063,-0.044,-0.1948,0.0303,-0.0207,0.0124,0.0217,0.026,1001.8438,47.1,4.26,27.6,58.0,284.5648,-176.4397,-88.0603,59.2577,59.9323375,10.7183187,0.0
599.382421,-1.0139,0.0616,-0.0332,-0.1948,0.0303,-0.0207,0.0124,0.0217,0.026,1001.8359,47.16,4.32,27.54,58.0,284.5648,-176.4397,-88.0603,59.2577,59.9323375,10.7183187,0.0
599.400923,-1.0154,0.0591,-0.0391,-0.1554,-0.021,0.0154,0.0057,0.0064,0.037,1001.8359,47.1,4.44,28.5,58.0,284.1573,-176.3499,-88.0034,59.2577,59.9323375,10.7183187,0.0
599.420678,-1.0107,0.0647,-0.0403,-0.1554,-0.021,0.0154,0.0057,0.0064,0.037,1001.8359,46.8,4.08,28.5,58.0,284.1573,-176.3499,-88.0034,59.2577,59.9323375,10.7183187,0.0
599.441393,-1.0107,0.0687,-0.0398,-0.1554,-0.021,0.0154,0.0057,0.0064,0.037,1001.8359,46.74,3.48,28.38,58.0,284.1573,-176.3499,-88.0034,59.2577,59.9323375,10.7183187,0.0
599.461248,-1.0115,0.073,-0.0342,-0.1259,0.0282,-0.0428,-0.0005,0.004,0.0345,1001.8359,46.92,3.06,28.92,58.0,282.4833,-176.2311,-87.9652,59.2577,59.9323375,10.7183187,0.0
599.482624,-1.01,0.0721,-0.0362,-0.1259,0.0282,-0.0428,-0.0005,0.004,0.0345,1001.835,46.44,3.18,28.62,58.0,282.4833,-176.2311,-87.9652,59.2577,59.9323375,10.7183187,0.0
599.501057,-1.0088,0.0711,-0.0357,-0.1259,0.0282,-0.0428,-0.0005,0.004,0.0345,1001.835,46.26,3.3,28.8,58.0,282.4833,-176.2311,-87.9652,74.4797,59.9323375,10.7183187,0.0
599.522504,-1.0097,0.0682,-0.0352,-0.1074,0.0359,-0.0115,-0.017,-0.0162,0.018,1001.835,47.04,4.32,28.2,58.0,282.0087,-176.1362,-88.0199,74.4797,59.9323375,10.7183187,0.0
599.540909,-1.0117,0.0672,-0.0379,-0.1074,0.0359,-0.0115,-0.017,-0.0162,0.018,1001.835,47.64,4.62,28.02,58.0,282.0087,-176.1362,-88.0199,74.4797,59.9323375,10.7183187,0.0
599.565306,-1.0107,0.0679,-0.042,-0.1074,0.0359,-0.0115,-0.017,-0.0162,0.018,1001.835,47.76,4.38,27.9,58.0,282.0087,-176.1362,-88.0199,74.4797,59.9323375,10.7183187,0.0
599.581286,-1.0088,0.0708,-0.0357,-0.1277,-0.0075,-0.0672,-0.009,0.0211,0.0235,1001.8279,47.46,4.86,26.94,58.0,282.7961,-176.0645,-87.9813,74.4797,59.9323375,10.7183187,0.0
599.60076,-1.0063,0.0708,-0.0386,-0.1277,-0.0075,-0.0672,-0.009,0.0211,0.0235,1001.8279,47.22,5.28,26.34,58.0,282.7961,-176.0645,-87.9813,74.4797,59.9323375,10.7183187,0.0
599.624687,-1.0066,0.0672,-0.0381,-0.0853,0.008,-0.0405,-0.0084,-0.029,0.0235,1001.8279,47.46,4.2,28.98,58.0,283.8316,-175.9869,-88.021,74.4797,59.9323375,10.7183187,0.0
599.641439,-1.0102,0.065,-0.0332,-0.0853,0.008,-0.0405,-0.0084,-0.029,0.0235,1001.8279,47.46,4.2,28.98,58.0,283.8316,-175.9869,-88.021,74.4797,59.9323375,10.7183187,0.0
599.661352,-1.0127,0.0655,-0.0296,-0.0853,0.008,-0.0405,-0.0084,-0.029,0.0235,1001.8279,47.34,4.56,27.9,58.0,283.8316,-175.9869,-88.021,74.4797,59.9323375,10.7183187,0.0
599.681828,-1.0149,0.0706,-0.0298,-0.0853,0.008,-0.0405,-0.0084,-0.029,0.0235,1001.8159,47.58,4.62,27.0,58.0,283.8316,-175.9869,-88.021,74.4797,59.9323375,10.7183187,0.0
599.70071,-1.0097,0.0711,-0.034,-0.1697,-0.0062,0.0384,0.0118,-0.0076,0.0217,1001.8159,47.88,4.8,26.64,58.0,284.1808,-175.9176,-88.0636,74.4797,59.9323375,10.7183187,0.0
599.722189,-1.0078,0.0733,-0.0403,-0.1697,-0.0062,0.0384,0.0118,-0.0076,0.0217,1001.8159,48.0,4.98,26.34,58.0,284.1808,-175.9176,-88.0636,74.4797,59.9323375,10.7183187,0.0
599.741443,-1.0078,0.0733,-0.0384,-0.1697,-0.0062,0.0384,0.0118,-0.0076,0.0217,1001.8159,48.06,4.74,27.0,58.0,284.1808,-175.9176,-88.0636,74.4797,59.9323375,10.7183187,0.0
599.761697,-1.0102,0.0772,-0.0315,-0.1008,0.0106,-0.0483,0.0118,0.0052,0.0113,1001.8159,47.22,3.84,27.48,58.0,284.574,-175.8619,-88.0809,74.4797,59.9323375,10.7183187,0.0
599.781196,-1.0058,0.073,-0.0283,-0.1008,0.0106,-0.0483,0.0118,0.0052,0.0113,1001.7998,46.8,3.66,26.88,58.0,284.574,-175.8619,-88.0809,74.4797,59.9323375,10.7183187,0.0
599.805107,-0.9978,0.0691,-0.0376,-0.0816,0.0042,0.0388,0.0026,-0.0321,0.0003,1001.7998,47.22,3.9,28.02,58.0,284.1222,-175.8387,-88.1453,77.5485,59.9323375,10.7183187,0.0
599.820761,-0.9997,0.0772,-0.0359,-0.0816,0.0042,0.0388,0.0026,-0.0321,0.0003,1001.7998,47.22,3.9,28.02,58.0,284.1222,-175.8387,-88.1453,77.5485,59.9323375,10.7183187,0.0
599.840783,-1.0134,0.0801,-0.0244,-0.0816,0.0042,0.0388,0.0026,-0.0321,0.0003,1001.7998,47.16,3.54,28.44,58.0,284.1222,-175.8387,-88.1453,77.5485,59.9323375,10.7183187,0.0
599.868185,-1.0166,0.0687,-0.0315,-0.1562,0.0733,0.0877,0.0191,0.0229,0.0058,1001.7932,47.1,3.66,27.42,58.0,283.1113,-175.8365,-88.0836,77.5485,59.9323375,10.7183187,0.0
599.881612,-1.009,0.0689,-0.041,-0.1562,0.0733,0.0877,0.0191,0.0229,0.0058,1001.7932,47.1,3.66,27.42,58.0,283.1113,-175.8365,-88.0836,77.5485,59.9323375,10.7183187,0.0
599.901434,-1.0107,0.0757,-0.0279,-0.1562,0.0733,0.0877,0.0191,0.0229,0.0058,1001.7932,47.76,4.62,27.12,58.0,283.1113,-175.8365,-88.0836,77.5485,59.9323375,10.7183187,0.0
599.921559,-1.0056,0.073,-0.0337,-0.1562,0.0733,0.0877,0.0191,0.0229,0.0058,1001.7932,47.88,4.74,27.0,58.0,283.1113,-175.8365,-88.0836,77.5485,59.9323375,10.7183187,0.0
599.941604,-1.0029,0.0643,-0.0305,-0.08,0.0018,0.0054,-0.0212,0.0113,-0.0058,1001.7932,47.7,4.62,26.64,58.0,283.6767,-175.8244,-88.0325,77.5485,59.9323375,10.7183187,0.0
599.964542,-1.0068,0.0633,-0.0269,-0.08,0.0018,0.0054,-0.0212,0.0113,-0.0058,1001.7932,47.82,4.5,27.3,58.0,283.6767,-175.8244,-88.0325,77.5485,59.9323375,10.7183187,0.0
599.983711,-1.0078,0.0706,-0.0315,-0.0918,-0.088,0.0795,-0.0212,0.0113,-0.0058,1001.7859,47.58,4.56,27.36,58.0,283.8858,-175.8594,-87.9912,77.5485,59.9323375,10.7183187,0.0
600.002304,-1.009,0.0733,-0.0381,-0.0918,-0.088,0.0795,0.0075,-0.0058,-0.0095,1001.7859,48.0,4.56,27.18,58.0,283.8858,-175.8594,-87.9912,77.5485,59.9323375,10.7183187,0.0
600.020884,-1.0085,0.0735,-0.0396,-0.0918,-0.088,0.0795,0.0075,-0.0058,-0.0095,1001.7859,47.88,4.2,27.06,58.0,283.8858,-175.8594,-87.9912,77.5485,59.9323375,10.7183187,0.0
600.046378,-1.0063,0.0713,-0.0249,-0.1083,0.02,-0.0374,0.0063,0.0174,-0.0119,1001.7859,47.64,3.66,27.3,58.0,283.8078,-175.903,-87.9469,77.5485,59.9323375,10.7183187,0.0
600.061147,-1.0093,0.0706,-0.0286,-0.1083,0.02,-0.0374,0.0063,0.0174,-0.0119,1001.7859,47.64,3.66,27.3,58.0,283.8078,-175.903,-87.9469,77.5485,59.9323375,10.7183187,0.0
600.081174,-1.011,0.074,-0.0217,-0.1083,0.02,-0.0374,0.0063,0.0174,-0.0119,1001.793,47.46,3.36,27.96,58.0,283.8078,-175.903,-87.9469,77.5485,59.9323375,10.7183187,0.0
600.101069,-1.0137,0.0726,-0.0298,-0.1083,0.02,-0.0374,0.0063,0.0174,-0.0119,1001.793,47.28,3.84,28.14,58.0,283.8078,-175.903,-87.9469,78.7642,59.9323375,10.7183187,0.0
600.1207,-1.0058,0.0669,-0.0332,-0.1576,0.0205,0.0509,-0.0151,0.0095,-0.0223,1001.793,47.46,4.02,28.26,58.0,283.4812,-175.9619,-87.9905,78.7642,59.9323375,10.7183187,0.0
600.140735,-1.0107,0.0621,-0.0279,-0.1576,0.0205,0.0509,-0.0151,0.0095,-0.0223,1001.793,47.64,4.02,29.28,58.0,283.4812,-175.9619,-87.9905,78.7642,59.9323375,10.7183187,0.0
600.162142,-1.0088,0.0616,-0.0235,-0.1576,0.0205,0.0509,-0.0151,0.0095,-0.0223,1001.793,46.68,2.94,30.18,58.0,283.4812,-175.9619,-87.9905,78.7642,59.9323375,10.7183187,0.0
600.181775,-1.0017,0.0645,-0.0271,-0.1096,-0.0767,0.1326,0.0118,-0.0027,-0.015,1001.7729,46.5,3.0,29.4,58.0,281.7509,-176.0239,-87.8768,78.7642,59.9323375,10.7183187,0.0
600.200634,-0.999,0.0662,-0.0335,-0.1096,-0.0767,0.1326,0.0118,-0.0027,-0.015,1001.7729,47.04,3.78,28.86,58.0,281.7509,-176.0239,-87.8768,78.7642,59.9323375,10.7183187,0.0
600.221017,-1.0071,0.065,-0.0354,-0.1096,-0.0767,0.1326,0.0118,-0.0027,-0.015,1001.7729,47.46,4.5,28.02,58.0,281.7509,-176.0239,-87.8768,78.7642,59.9323375,10.7183187,0.0
600.241471,-1.0073,0.0613,-0.032,-0.0917,-0.0334,0.0017,0.0215,0.0473,-0.0064,1001.7729,48.12,4.74,26.94,58.0,282.512,-176.0809,-87.9564,78.7642,59.9323375,10.7183187,0.0
600.260518,-1.0119,0.0611,-0.0291,-0.0917,-0.0334,0.0017,0.0215,0.0473,-0.0064,1001.7729,47.76,4.26,26.88,58.0,282.512,-176.0809,-87.9564,78.7642,59.9323375,10.7183187,0.0
600.280887,-1.0207,0.0608,-0.0239,-0.0917,-0.0334,0.0017,0.0215,0.0473,-0.0064,1001.7632,47.58,4.8,27.0,58.0,282.512,-176.0809,-87.9564,78.7642,59.9323375,10.7183187,0.0
600.301753,-1.0259,0.0616,-0.0232,-0.2265,-0.0684,0.1446,0.0148,0.018,-0.0034,1001.7632,47.22,4.38,27.24,58.0,282.9644,-176.1142,-87.7786,78.7642,59.9323375,10.7183187,0.0
600.320581,-1.0247,0.0601,-0.03,-0.2265,-0.0684,0.1446,0.0148,0.018,-0.0034,1001.7632,47.16,3.84,27.42,58.0,282.9644,-176.1142,-87.7786,78.7642,59.9323375,10.7183187,0.0
600.341944,-1.0207,0.0599,-0.0442,-0.2265,-0.0684,0.1446,0.0148,0.018,-0.0034,1001.7632,47.34,4.08,27.24,58.0,282.9644,-176.1142,-87.7786,78.7642,59.9323375,10.7183187,0.0
600.361545,-1.009,0.0599,-0.0501,-0.226,-0.0736,-0.0609,0.0234,0.0235,0.0113,1001.7632,46.44,3.9,27.6,58.0,282.9835,-176.1401,-87.8185,78.7642,59.9323375,10.7183187,0.0
600.381173,-0.9961,0.0596,-0.0557,-0.226,-0.0736,-0.0609,0.0234,0.0235,0.0113,1001.7563,46.74,4.38,27.24,58.0,282.9835,-176.1401,-87.8185,78.7642,59.9323375,10.7183187,0.0
600.400855,-1.0002,0.0596,-0.0508,-0.226,-0.0736,-0.0609,0.0234,0.0235,0.0113,1001.7563,47.94,4.74,27.54,58.0,282.9835,-176.1401,-87.8185,75.3089,59.9323375,10.7183187,0.0
600.420858,-1.011,0.0669,-0.0396,-0.0255,-0.0765,-0.1105,0.0276,-0.0131,0.0027,1001.7563,47.4,3.72,28.8,58.0,282.9302,-176.1369,-87.73,75.3089,59.9323375,10.7183187,0.0
600.442333,-1.0129,0.0608,-0.0359,-0.0255,-0.0765,-0.1105,0.0276,-0.0131,0.0027,1001.7563,46.62,3.24,28.14,58.0,282.9302,-176.1369,-87.73,75.3089,59.9323375,10.7183187,0.0
600.462051,-1.0027,0.0611,-0.0391,-0.0255,-0.0765,-0.1105,0.0276,-0.0131,0.0027,1001.7563,46.68,3.36,27.9,58.0,282.9302,-176.1369,-87.73,75.3089,59.9323375,10.7183187,0.0
600.481748,-1.0063,0.0687,-0.0308,-0.0487,-0.0581,-0.0086,0.0313,-0.0082,0.004,1001.7478,46.98,3.36,28.2,58.0,282.0819,-176.1605,-87.8065,75.3089,59.9323375,10.7183187,0.0
600.502958,-1.0207,0.0762,-0.0371,-0.0487,-0.0581,-0.0086,0.0313,-0.0082,0.004,1001.7478,47.4,4.5,27.42,58.0,282.0819,-176.1605,-87.8065,75.3089,59.9323375,10.7183187,0.0
600.521852,-1.0276,0.0716,-0.0437,-0.0487,-0.0581,-0.0086,0.0313,-0.0082,0.004,1001.7478,47.04,4.14,27.84,58.0,282.0819,-176.1605,-87.8065,75.3089,59.9323375,10.7183187,0.0
600.541695,-1.0249,0.0765,-0.031,-0.2934,0.0427,-0.0434,0.071,0.0009,0.0333,1001.7478,46.92,3.54,27.9,58.0,282.2189,-176.1482,-87.7437,75.3089,59.9323375,10.7183187,0.0
600.56086,-0.9983,0.0845,-0.0467,-0.2934,0.0427,-0.0434,0.071,0.0009,0.0333,1001.7478,46.74,3.6,27.96,58.0,282.2189,-176.1482,-87.7437,75.3089,59.9323375,10.7183187,0.0
600.582771,-0.9692,0.0743,-0.0577,-0.2934,0.0427,-0.0434,0.071,0.0009,0.0333,1001.7568,46.56,3.36,28.62,58.0,282.2189,-176.1482,-87.7437,75.3089,59.9323375,10.7183187,0.0
600.601192,-0.9697,0.0684,-0.0418,0.2793,0.0418,-0.2462,0.0209,-0.1762,0.0559,1001.7568,46.98,3.12,28.5,58.0,282.6562,-175.9885,-88.1325,75.3089,59.9323375,10.7183187,0.0
600.621548,-0.9988,0.0779,0.0005,0.2793,0.0418,-0.2462,0.0209,-0.1762,0.0559,1001.7568,47.16,2.94,27.9,58.0,282.6562,-175.9885,-88.1325,75.3089,59.9323375,10.7183187,0.0
600.642121,-1.0342,0.075,-0.0049,0.2793,0.0418,-0.2462,0.0209,-0.1762,0.0559,1001.7568,47.1,3.48,27.3,58.0,282.6562,-175.9885,-88.1325,75.3089,59.9323375,10.7183187,0.0
600.661649,-1.0422,0.0574,-0.0322,-0.3578,0.0445,0.2687,0.0173,0.1384,-0.015,1001.7568,47.52,3.84,27.12,58.0,282.3786,-175.9621,-88.1457,75.3089,59.9323375,10.7183187,0.0
600.681148,-1.0229,0.0464,-0.0464,-0.3578,0.0445,0.2687,0.0173,0.1384,-0.015,1001.7725,47.64,4.14,27.0,58.0,282.3786,-175.9621,-88.1457,75.3089,59.9323375,10.7183187,0.0
600.701122,-1.0044,0.0432,-0.0369,-0.3578,0.0445,0.2687,0.0173,0.1384,-0.015,1001.7725,47.58,4.2,27.06,58.0,282.3786,-175.9621,-88.1457,84.2795,59.9323375,10.7183187,0.0
600.721709,-1.0032,0.0484,-0.0425,-0.069,-0.2585,0.0591,0.0374,0.0932,-0.0363,1001.7725,47.34,3.66,27.72,58.0,281.8064,-176.0104,-87.536,84.2795,59.9323375,10.7183187,0.0
600.742959,-1.0046,0.0569,-0.0362,-0.069,-0.2585,0.0591,0.0374,0.0932,-0.0363,1001.7725,47.04,3.84,27.3,57.0,281.8064,-176.0104,-87.536,84.2795,59.9323375,10.7183187,0.0
600.772304,-0.9968,0.0672,-0.0408,-0.0688,-0.0965,0.0491,0.0289,-0.0241,-0.0321,1001.7756,46.8,3.42,30.54,57.0,282.0389,-176.1739,-87.6367,84.2795,59.9323375,10.7183187,0.0
600.780483,-0.997,0.0687,-0.0457,-0.0688,-0.0965,0.0491,0.0289,-0.0241,-0.0321,1001.7756,46.8,3.42,30.54,57.0,282.0389,-176.1739,-87.6367,84.2795,59.9323375,10.7183187,0.0
600.800873,-1.0149,0.0667,-0.041,-0.0688,-0.0965,0.0491,0.0289,-0.0241,-0.0321,1001.7756,46.62,2.76,31.5,57.0,282.0389,-176.1739,-87.6367,84.2795,59.9323375,10.7183187,0.0
600.820923,-1.0178,0.0665,-0.0569,-0.0688,-0.0965,0.0491,0.0289,-0.0241,-0.0321,1001.7756,46.56,2.52,30.24,57.0,282.0389,-176.1739,-87.6367,84.2795,59.9323375,10.7183187,0.0
600.840913,-0.9951,0.0667,-0.086,-0.1988,0.013,-0.1135,0.0228,0.0993,-0.0217,1001.7756,46.14,2.34,30.6,57.0,281.0177,-176.2688,-87.3973,84.2795,59.9323375,10.7183187,0.0
600.861141,-1.0073,0.0611,-0.002,-0.1988,0.013,-0.1135,0.0228,0.0993,-0.0217,1001.7756,46.98,3.42,31.14,57.0,281.0177,-176.2688,-87.3973,84.2795,59.9323375,10.7183187,0.0
600.88082,-1.0442,0.0606,-0.011,-0.1988,0.013,-0.1135,0.0228,0.0993,-0.0217,1001.7729,47.76,3.96,29.34,57.0,281.0177,-176.2688,-87.3973,84.2795,59.9323375,10.7183187,0.0
600.901914,-1.0071,0.0513,-0.0584,-0.4583,-0.0374,0.3671,0.0264,-0.1414,-0.0113,1001.7729,47.52,4.08,28.86,57.0,280.6811,-176.31,-87.219,84.2795,59.9323375,10.7183187,0.0
600.920491,-0.9968,0.0435,-0.0459,-0.4583,-0.0374,0.3671,0.0264,-0.1414,-0.0113,1001.7729,47.28,4.32,28.68,57.0,280.6811,-176.31,-87.219,84.2795,59.9323375,10.7183187,0.0
600.941059,-1.0264,0.0435,-0.0205,-0.4583,-0.0374,0.3671,0.0264,-0.1414,-0.0113,1001.7729,47.46,4.32,28.08,57.0,280.6811,-176.31,-87.219,84.2795,59.9323375,10.7183187,0.0
600.962662,-1.0261,0.0469,-0.0572,-0.2831,-0.2024,0.2668,0.0454,0.0235,-0.0003,1001.7729,47.46,4.92,28.32,57.0,281.5258,-176.3251,-87.2595,84.2795,59.9323375,10.7183187,0.0
600.982747,-0.9931,0.054,-0.0559,-0.2831,-0.2024,0.2668,0.0454,0.0235,-0.0003,1001.7458,46.8,4.44,28.92,57.0,281.5258,-176.3251,-87.2595,84.2795,59.9323375,10.7183187,0.0
601.002525,-0.988,0.0613,-0.0213,-0.2831,-0.2024,0.2668,0.0454,0.0235,-0.0003,1001.7458,46.98,4.08,28.56,57.0,281.5258,-176.3251,-87.2595,92.0882,59.9323375,10.7183187,0.0
601.020742,-1.0154,0.0689,-0.0198,0.0948,-0.0087,0.2427,0.0301,-0.1121,0.0046,1001.7458,47.46,4.2,28.2,56.0,281.8302,-176.4355,-87.3592,92.0882,59.9323375,10.7183187,0.0
601.04049,-1.0093,0.0679,-0.0496,0.0948,-0.0087,0.2427,0.0301,-0.1121,0.0046,1001.7458,47.34,3.9,27.96,56.0,281.8302,-176.4355,-87.3592,92.0882,59.9323375,10.7183187,0.0
601.061212,-0.9882,0.063,-0.0611,0.0948,-0.0087,0.2427,0.0301,-0.1121,0.0046,1001.7458,46.56,3.3,28.44,56.0,281.8302,-176.4355,-87.3592,92.0882,59.9323375,10.7183187,0.0
601.08198,-0.9856,0.0628,-0.0489,0.0944,0.0088,-0.1906,0.035,0.1689,0.0235,1001.7559,46.62,3.42,29.04,56.0,281.2356,-176.4404,-87.6111,92.0882,59.9323375,10.7183187,0.0
601.100897,-0.9995,0.0682,-0.0496,0.0944,0.0088,-0.1906,0.035,0.1689,0.0235,1001.7559,47.52,3.78,27.84,56.0,281.2356,-176.4404,-87.6111,92.0882,59.9323375,10.7183187,0.0
601.121538,-1.009,0.0782,-0.043,0.0944,0.0088,-0.1906,0.035,0.1689,0.0235,1001.7559,47.82,4.38,26.28,56.0,281.2356,-176.4404,-87.6111,92.0882,59.9323375,10.7183187,0.0
601.141413,-1.0122,0.0796,-0.041,-0.1124,0.1426,0.0388,-0.02,-0.026,0.0113,1001.7559,47.46,4.38,26.4,54.0,281.5081,-176.3545,-87.3052,92.0882,59.9323375,10.7183187,0.0
601.16181,-1.0061,0.0723,-0.0545,-0.1124,0.1426,0.0388,-0.02,-0.026,0.0113,1001.7559,47.34,4.32,27.42,54.0,281.5081,-176.3545,-87.3052,92.0882,59.9323375,10.7183187,0.0
601.182315,-1.0056,0.0667,-0.0542,-0.1124,0.1426,0.0388,-0.02,-0.026,0.0113,1001.7805,47.22,4.5,28.02,54.0,281.5081,-176.3545,-87.3052,92.0882,59.9323375,10.7183187,0.0
601.20085,-1.0124,0.0735,-0.0352,-0.0811,0.0139,-0.0469,0.0252,0.1023,0.0443,1001.7805,46.98,4.32,27.96,54.0,281.4134,-176.2596,-87.1615,92.0882,59.9323375,10.7183187,0.0
601.221335,-1.0102,0.0784,-0.0462,-0.0811,0.0139,-0.0469,0.0252,0.1023,0.0443,1001.7805,47.22,4.38,28.02,54.0,281.4134,-176.2596,-87.1615,92.0882,59.9323375,10.7183187,0.0
601.241016,-1.0095,0.0682,-0.0601,-0.0811,0.0139,-0.0469,0.0252,0.1023,0.0443,1001.7805,47.7,4.44,28.56,54.0,281.4134,-176.2596,-87.1615,92.0882,59.9323375,10.7183187,0.0
601.281671,-1.0151,0.0472,-0.0445,-0.1219,0.0089,-0.0806,-0.0328,0.0443,0.0144,1001.7905,47.16,4.26,28.8,54.0,281.2904,-176.1466,-87.0219,92.0882,59.9323375,10.7183187,0.0
601.301578,-1.0154,0.0577,-0.0523,-0.1219,0.0089,-0.0806,-0.0328,0.0443,0.0144,1001.7905,47.22,4.26,28.14,54.0,281.2904,-176.1466,-87.0219,89.6361,59.9323375,10.7183187,0.0
601.32103,-1.0095,0.0662,-0.0621,-0.1805,-0.0953,0.0157,-0.02,0.0095,-0.0009,1001.7905,46.74,3.66,28.2,54.0,281.0235,-176.1388,-86.9063,89.6361,59.9323375,10.7183187,0.0
601.341798,-1.0066,0.0726,-0.0567,-0.1805,-0.0953,0.0157,-0.02,0.0095,-0.0009,1001.7905,46.92,4.14,27.6,54.0,281.0235,-176.1388,-86.9063,89.6361,59.9323375,10.7183187,0.0
601.362144,-1.0075,0.0674,-0.0525,-0.1805,-0.0953,0.0157,-0.02,0.0095,-0.0009,1001.7905,47.4,4.26,27.48,54.0,281.0235,-176.1388,-86.9063,89.6361,59.9323375,10.7183187,0.0
601.38321,-1.0203,0.0647,-0.0496,-0.1045,0.0023,0.0262,-0.0078,-0.0021,-0.0003,1001.8069,47.64,4.2,27.96,54.0,281.0768,-176.1501,-86.8306,89.6361,59.9323375,10.7183187,0.0
601.401316,-1.0176,0.0669,-0.0472,-0.1045,0.0023,0.0262,-0.0078,-0.0021,-0.0003,1001.8069,47.34,4.26,28.92,54.0,281.0768,-176.1501,-86.8306,89.6361,59.9323375,10.7183187,0.0
601.420842,-1.0097,0.0708,-0.0518,-0.1045,0.0023,0.0262,-0.0078,-0.0021,-0.0003,1001.8069,46.98,4.08,30.36,54.0,281.0768,-176.1501,-86.8306,89.6361,59.9323375,10.7183187,0.0
601.441122,-1.0054,0.0699,-0.0469,-0.1253,0.038,0.0242,-0.0176,-0.0003,-0.0052,1001.8069,47.34,4.2,30.6,53.0,280.9915,-176.1623,-86.8846,89.6361,59.9323375,10.7183187,0.0
601.461458,-1.0075,0.0684,-0.0464,-0.1253,0.038,0.0242,-0.0176,-0.0003,-0.0052,1001.8069,46.98,3.84,29.7,53.0,280.9915,-176.1623,-86.8846,89.6361,59.9323375,10.7183187,0.0
601.481002,-1.0097,0.0635,-0.0542,-0.1253,0.038,0.0242,-0.0176,-0.0003,-0.0052,1001.7969,46.8,3.54,28.74,53.0,280.9915,-176.1623,-86.8846,89.6361,59.9323375,10.7183187,0.0
601.502689,-1.0061,0.0616,-0.0591,-0.1246,-0.0309,-0.0095,-0.0243,-0.0015,-0.0015,1001.7969,46.86,4.2,27.66,53.0,280.8173,-176.1795,-86.9418,89.6361,59.9323375,10.7183187,0.0
601.521289,-1.0061,0.0645,-0.0591,-0.1246,-0.0309,-0.0095,-0.0243,-0.0015,-0.0015,1001.7969,46.92,4.68,26.94,53.0,280.8173,-176.1795,-86.9418,89.6361,59.9323375,10.7183187,0.0
601.546286,-1.0085,0.0643,-0.055,-0.1246,-0.0309,-0.0095,-0.0243,-0.0015,-0.0015,1001.7969,47.22,4.02,27.78,53.0,280.8173,-176.1795,-86.9418,89.6361,59.9323375,10.7183187,0.0
601.562624,-1.0044,0.0625,-0.0552,-0.1139,-0.0278,0.0017,-0.0286,0.0199,0.0119,1001.7969,46.98,3.54,28.56,53.0,280.9994,-176.1555,-86.8339,89.6361,59.9323375,10.7183187,0.0
601.580894,-1.0063,0.0618,-0.0591,-0.1139,-0.0278,0.0017,-0.0286,0.0199,0.0119,1001.8022,46.86,4.26,28.02,53.0,280.9994,-176.1555,-86.8339,89.6361,59.9323375,10.7183187,0.0
601.601161,-1.0039,0.0601,-0.0579,-0.1139,-0.0278,0.0017,-0.0286,0.0199,0.0119,1001.8022,46.5,3.84,28.44,53.0,280.9994,-176.1555,-86.8339,81.9197,59.9323375,10.7183187,0.0
601.621004,-1.0058,0.0584,-0.0533,-0.069,-0.0766,-0.027,-0.0255,0.0272,0.0205,1001.8022,47.58,4.26,28.38,53.0,280.8986,-176.1082,-86.8335,81.9197,59.9323375,10.7183187,0.0
601.641352,-1.0088,0.0652,-0.0528,-0.069,-0.0766,-0.027,-0.0255,0.0272,0.0205,1001.8022,47.52,4.8,28.32,53.0,280.8986,-176.1082,-86.8335,81.9197,59.9323375,10.7183187,0.0
601.661285,-1.0115,0.0669,-0.0577,-0.069,-0.0766,-0.027,-0.0255,0.0272,0.0205,1001.8022,46.2,3.36,28.8,53.0,280.8986,-176.1082,-86.8335,81.9197,59.9323375,10.7183187,0.0
601.68309,-1.011,0.0638,-0.0574,-0.1449,-0.0177,-0.0045,-0.009,0.0437,0.0192,1001.8103,46.62,3.36,27.96,53.0,280.6339,-176.0604,-86.7155,81.9197,59.9323375,10.7183187,0.0
601.701431,-1.0097,0.0625,-0.0545,-0.1449,-0.0177,-0.0045,-0.009,0.0437,0.0192,1001.8103,46.56,3.48,27.54,53.0,280.6339,-176.0604,-86.7155,81.9197,59.9323375,10.7183187,0.0
601.727682,-1.0049,0.0608,-0.0476,-0.13,-0.0683,0.0488,-0.009,0.0437,0.0192,1001.8103,46.68,2.82,29.4,53.0,279.0009,-176.0165,-86.5851,81.9197,59.9323375,10.7183187,0.0
601.740924,-0.9983,0.0628,-0.0586,-0.13,-0.0683,0.0488,0.0002,0.0144,0.018,1001.8103,46.68,2.82,29.4,53.0,279.0009,-176.0165,-86.5851,81.9197,59.9323375,10.7183187,0.0
601.761137,-0.9995,0.0665,-0.0621,-0.13,-0.0683,0.0488,0.0002,0.0144,0.018,1001.8103,47.88,4.56,28.56,53.0,279.0009,-176.0165,-86.5851,81.9197,59.9323375,10.7183187,0.0
601.782275,-1.0071,0.0684,-0.0611,-0.13,-0.0683,0.0488,0.0002,0.0144,0.018,1001.8018,48.0,4.62,28.68,53.0,279.0009,-176.0165,-86.5851,81.9197,59.9323375,10.7183187,0.0
601.802543,-1.0095,0.0621,-0.0616,-0.1057,-0.0176,0.01,0.0289,0.1054,0.029,1001.8018,47.94,5.16,28.32,53.0,280.9125,-175.977,-86.4336,81.9197,59.9323375,10.7183187,0.0
601.820757,-1.0019,0.0623,-0.0723,-0.1057,-0.0176,0.01,0.0289,0.1054,0.029,1001.8018,47.46,4.92,28.56,53.0,280.9125,-175.977,-86.4336,81.9197,59.9323375,10.7183187,0.0
601.846045,-0.9951,0.0726,-0.0603,-0.1057,-0.0176,0.01,0.0289,0.1054,0.029,1001.8018,47.28,4.2,28.68,53.0,280.9125,-175.977,-86.4336,81.9197,59.9323375,10.7183187,0.0
601.861291,-0.9924,0.0816,-0.065,0.0079,0.0108,0.0619,0.0203,0.0724,0.0229,1001.8018,47.4,3.9,28.5,53.0,281.2759,-175.9052,-86.1705,81.9197,59.9323375,10.7183187,0.0
601.884141,-0.998,0.0752,-0.0672,0.0079,0.0108,0.0619,0.0203,0.0724,0.0229,1001.8062,47.04,3.66,28.68,52.0,281.2759,-175.9052,-86.1705,81.9197,59.9323375,10.7183187,0.0
601.902015,-1.0041,0.0645,-0.0596,0.0079,0.0108,0.0619,0.0203,0.0724,0.0229,1001.8062,47.04,3.66,28.68,52.0,281.2759,-175.9052,-86.1705,74.5862,59.9323375,10.7183187,0.0
601.921721,-1.0017,0.0613,-0.0655,-0.0857,-0.0793,0.1296,0.0148,0.1628,0.0125,1001.8062,46.8,3.6,29.82,52.0,280.8522,-175.8404,-85.815,74.5862,59.9323375,10.7183187,0.0
601.94121,-0.9882,0.0662,-0.0782,-0.0857,-0.0793,0.1296,0.0148,0.1628,0.0125,1001.8062,47.34,4.56,28.98,51.0,280.8522,-175.8404,-85.815,74.5862,59.9323375,10.7183187,0.0
601.961253,-0.9807,0.0765,-0.0777,-0.0857,-0.0793,0.1296,0.0148,0.1628,0.0125,1001.8062,47.52,4.26,28.86,51.0,280.8522,-175.8404,-85.815,74.5862,59.9323375,10.7183187,0.0
601.98109,-0.9829,0.0779,-0.0752,0.138,0.0367,0.0306,0.038,0.1836,0.0235,1001.7998,47.34,3.6,29.1,51.0,280.839,-175.8325,-85.3557,74.5862,59.9323375,10.7183187,0.0
602.001197,-0.9856,0.0743,-0.076,0.138,0.0367,0.0306,0.038,0.1836,0.0235,1001.7998,47.28,3.3,29.04,51.0,280.839,-175.8325,-85.3557,74.5862,59.9323375,10.7183187,0.0
602.020409,-0.9853,0.0711,-0.0745,0.138,0.0367,0.0306,0.038,0.1836,0.0235,1001.7998,47.28,3.3,29.58,51.0,280.839,-175.8325,-85.3557,74.5862,59.9323375,10.7183187,0.0
602.041859,-0.9814,0.0755,-0.0782,0.0808,-0.0232,0.1887,0.0185,0.3387,0.0082,1001.7998,47.28,3.84,30.12,51.0,280.3894,-175.7899,-84.6084,74.5862,59.9323375,10.7183187,0.0
602.060981,-0.9709,0.0821,-0.087,0.0808,-0.0232,0.1887,0.0185,0.3387,0.0082,1001.7998,46.62,3.54,30.78,51.0,280.3894,-175.7899,-84.6084,74.5862,59.9323375,10.7183187,0.0
602.080727,-0.9611,0.0843,-0.0865,0.0808,-0.0232,0.1887,0.0185,0.3387,0.0082,1001.8181,46.74,3.24,30.78,51.0,280.3894,-175.7899,-84.6084,74.5862,59.9323375,10.7183187,0.0
602.100888,-0.9421,0.086,-0.0884,0.298,0.105,0.261,-0.0218,0.4548,-0.0107,1001.8181,46.92,3.96,30.06,49.0,279.8717,-175.7838,-83.4918,74.5862,59.9323375,10.7183187,0.0
602.121345,-0.9167,0.0892,-0.0923,0.298,0.105,0.261,-0.0218,0.4548,-0.0107,1001.8181,46.86,4.38,30.72,49.0,279.8717,-175.7838,-83.4918,74.5862,59.9323375,10.7183187,0.0
602.1418,-0.8854,0.0943,-0.098,0.298,0.105,0.261,-0.0218,0.4548,-0.0107,1001.8181,47.76,4.62,32.04,47.0,279.8717,-175.7838,-83.4918,74.5862,59.9323375,10.7183187,0.0
602.161898,-0.8534,0.0906,-0.0948,1.0038,0.1955,0.427,-0.0817,0.6173,0.0223,1001.8181,47.94,4.56,32.16,47.0,279.4959,-175.7389,-81.8458,74.5862,59.9323375,10.7183187,0.0
602.181353,-0.8224,0.0906,-0.0904,1.0038,0.1955,0.427,-0.0817,0.6173,0.0223,1001.8181,47.46,4.26,31.74,47.0,279.4959,-175.7389,-81.8458,74.5862,59.9323375,10.7183187,0.0
602.200968,-0.807,0.0877,-0.1019,1.0038,0.1955,0.427,-0.0817,0.6173,0.0223,1001.8181,47.76,4.5,32.4,47.0,279.4959,-175.7389,-81.8458,68.4044,59.9323375,10.7183187,0.0
602.22005,-0.8087,0.087,-0.1209,1.7059,0.0986,0.7782,-0.1275,0.7669,0.0528,1001.8181,47.82,4.8,33.3,47.0,278.8656,-175.5497,-79.5305,68.4044,59.9323375,10.7183187,0.0
602.241382,-0.8253,0.0767,-0.1295,1.7059,0.0986,0.7782,-0.1275,0.7669,0.0528,1001.8181,47.22,4.26,34.56,47.0,278.8656,-175.5497,-79.5305,68.4044,59.9323375,10.7183187,0.0
602.261324,-0.8485,0.0606,-0.1495,1.7059,0.0986,0.7782,-0.1275,0.7669,0.0528,1001.8181,47.04,3.6,36.3,47.0,278.8656,-175.5497,-79.5305,68.4044,59.9323375,10.7183187,0.0
602.280316,-0.8781,0.0408,-0.1625,1.184,-0.2134,0.8326,-0.1153,1.1121,0.0461,1001.8201,46.86,3.84,36.54,47.0,277.519,-175.2786,-76.4014,68.4044,59.9323375,10.7183187,0.0
602.301277,-0.9001,0.0362,-0.1908,1.184,-0.2134,0.8326,-0.1153,1.1121,0.0461,1001.8201,47.04,4.56,36.18,42.0,277.519,-175.2786,-76.4014,68.4044,59.9323375,10.7183187,0.0
602.32569,-0.8991,0.0577,-0.2116,0.4933,-0.4808,1.0838,-0.1153,1.1121,0.0461,1001.8201,46.74,3.96,39.0,39.0,277.2925,-175.1149,-72.405,68.4044,59.9323375,10.7183187,0.0
602.341393,-0.847,0.0752,-0.1996,0.4933,-0.4808,1.0838,-0.1122,1.2202,-0.018,1001.8201,46.74,3.96,39.0,39.0,277.2925,-175.1149,-72.405,68.4044,59.9323375,10.7183187,0.0
602.361587,-0.7723,0.0723,-0.2016,0.4933,-0.4808,1.0838,-0.1122,1.2202,-0.018,1001.8201,45.54,3.78,39.66,39.0,277.2925,-175.1149,-72.405,68.4044,59.9323375,10.7183187,0.0
602.38281,-0.7075,0.0618,-0.2463,0.4933,-0.4808,1.0838,-0.1122,1.2202,-0.018,1001.8228,44.76,3.36,40.8,39.0,277.2925,-175.1149,-72.405,68.4044,59.9323375,10.7183187,0.0
602.40183,-0.6438,0.0511,-0.2924,2.1673,-0.2666,1.133,-0.0762,0.8861,0.0809,1001.8228,45.66,3.48,41.46,39.0,276.583,-174.8966,-68.7111,68.4044,59.9323375,10.7183187,0.0
602.425615,-0.5932,0.0481,-0.3132,2.1673,-0.2666,1.133,-0.0762,0.8861,0.0809,1001.8228,45.78,3.54,42.18,39.0,276.583,-174.8966,-68.7111,68.4044,59.9323375,10.7183187,0.0
602.441423,-0.5695,0.0364,-0.3408,2.1673,-0.2666,1.133,-0.0762,0.8861,0.0809,1001.8228,44.7,3.3,43.38,39.0,276.583,-174.8966,-68.7111,68.4044,59.9323375,10.7183187,0.0
602.462767,-0.5602,0.0274,-0.3643,3.2317,-0.5492,0.8651,-0.0646,1.8329,0.0027,1001.8228,44.1,3.18,45.66,39.0,276.257,-174.6992,-64.4922,68.4044,59.9323375,10.7183187,0.0
602.481024,-0.5651,0.0183,-0.4153,3.2317,-0.5492,0.8651,-0.0646,1.8329,0.0027,1001.824,43.5,3.12,48.96,39.0,276.257,-174.6992,-64.4922,68.4044,59.9323375,10.7183187,0.0
602.501175,-0.5695,0.0156,-0.4732,3.2317,-0.5492,0.8651,-0.0646,1.8329,0.0027,1001.824,43.5,3.54,50.22,37.0,276.257,-174.6992,-64.4922,63.8063,59.9323375,10.7183187,0.0
602.521144,-0.58,0.0183,-0.5451,2.6212,-0.7663,0.6582,-0.089,2.4065,-0.0968,1001.824,43.2,4.02,49.92,37.0,276.6008,-174.6195,-57.1522,63.8063,59.9323375,10.7183187,0.0
602.541536,-0.6064,0.03,-0.6496,2.6212,-0.7663,0.6582,-0.089,2.4065,-0.0968,1001.824,41.94,3.9,51.42,37.0,276.6008,-174.6195,-57.1522,63.8063,59.9323375,10.7183187,0.0
602.56141,-0.6391,0.045,-0.729,2.6212,-0.7663,0.6582,-0.089,2.4065,-0.0968,1001.824,40.62,3.3,54.06,37.0,276.6008,-174.6195,-57.1522,63.8063,59.9323375,10.7183187,0.0
602.580553,-0.6531,0.0579,-0.7706,1.0729,-0.4148,-0.6937,0.0631,2.5299,-0.1304,1001.8242,39.48,3.3,55.8,37.0,279.9946,-174.9961,-48.675,63.8063,59.9323375,10.7183187,0.0
602.600962,-0.6389,0.0608,-0.7593,1.0729,-0.4148,-0.6937,0.0631,2.5299,-0.1304,1001.8242,37.74,3.36,57.54,37.0,279.9946,-174.9961,-48.675,63.8063,59.9323375,10.7183187,0.0
602.620848,-0.6176,0.0633,-0.7154,1.0729,-0.4148,-0.6937,0.0631,2.5299,-0.1304,1001.8242,35.52,2.7,60.3,37.0,279.9946,-174.9961,-48.675,63.8063,59.9323375,10.7183187,0.0
602.641435,-0.6101,0.0638,-0.7034,0.4275,-0.2482,0.2984,0.0179,0.9777,0.2037,1001.8242,34.98,3.48,62.34,37.0,281.887,-174.9201,-41.5614,63.8063,59.9323375,10.7183187,0.0
602.66096,-0.6299,0.0694,-0.7378,0.4275,-0.2482,0.2984,0.0179,0.9777,0.2037,1001.8242,33.48,3.3,63.18,37.0,281.887,-174.9201,-41.5614,63.8063,59.9323375,10.7183187,0.0
602.683363,-0.6675,0.0833,-0.7867,0.4275,-0.2482,0.2984,0.0179,0.9777,0.2037,1001.8328,32.52,2.64,63.96,37.0,281.887,-174.9201,-41.5614,63.8063,59.9323375,10.7183187,0.0
602.700938,-0.6973,0.0901,-0.8197,-0.0458,-0.0345,-0.412,0.214,-0.9551,0.1213,1001.8328,32.88,2.64,65.58,37.0,284.0957,-175.0223,-41.6714,63.8063,59.9323375,10.7183187,0.0
602.72115,-0.7232,0.0919,-0.8263,-0.0458,-0.0345,-0.412,0.214,-0.9551,0.1213,1001.8328,33.54,3.6,64.32,37.0,284.0957,-175.0223,-41.6714,63.8063,59.9323375,10.7183187,0.0
602.741681,-0.7481,0.1024,-0.8143,-0.0458,-0.0345,-0.412,0.214,-0.9551,0.1213,1001.8328,34.56,3.96,62.1,37.0,284.0957,-175.0223,-41.6714,63.8063,59.9323375,10.7183187,0.0
602.761188,-0.7835,0.1324,-0.7845,-0.5285,0.1318,-0.9708,0.0313,-0.1988,0.1011,1001.8328,34.56,2.76,61.98,37.0,284.4474,-174.9025,-44.1433,63.8063,59.9323375,10.7183187,0.0
602.781094,-0.808,0.16,-0.7762,-0.5285,0.1318,-0.9708,0.0313,-0.1988,0.1011,1001.8508,35.1,3.72,60.96,37.0,284.4474,-174.9025,-44.1433,63.8063,59.9323375,10.7183187,0.0
602.806273,-0.817,0.1578,-0.8211,-1.2239,0.749,-0.4871,0.1651,0.4566,0.0394,1001.8508,35.64,4.86,62.04,37.0,287.2513,-175.2081,-43.2355,69.6808,59.9323375,10.7183187,0.0
602.820921,-0.8123,0.1339,-0.883,-1.2239,0.749,-0.4871,0.1651,0.4566,0.0394,1001.8508,35.64,4.86,62.04,37.0,287.2513,-175.2081,-43.2355,69.6808,59.9323375,10.7183187,0.0
602.841704,-0.8065,0.108,-0.9264,-1.2239,0.749,-0.4871,0.1651,0.4566,0.0394,1001.8508,35.7,4.92,62.16,37.0,287.2513,-175.2081,-43.2355,69.6808,59.9323375,10.7183187,0.0
602.866263,-0.7994,0.0972,-0.9567,-1.4606,0.29,-1.726,0.1718,0.6533,-0.0015,1001.8774,33.9,4.92,62.4,37.0,290.0207,-175.5072,-41.2257,69.6808,59.9323375,10.7183187,0.0
602.881778,-0.7952,0.0901,-0.9826,-1.4606,0.29,-1.726,0.1718,0.6533,-0.0015,1001.8774,33.9,4.92,62.4,37.0,290.0207,-175.5072,-41.2257,69.6808,59.9323375,10.7183187,0.0
602.901391,-0.7869,0.0826,-1.0083,-1.4606,0.29,-1.726,0.1718,0.6533,-0.0015,1001.8774,33.48,4.02,64.08,36.0,290.0207,-175.5072,-41.2257,69.6808,59.9323375,10.7183187,0.0
602.92145,-0.7874,0.0743,-1.0366,-1.4606,0.29,-1.726,0.1718,0.6533,-0.0015,1001.8774,32.4,4.2,64.62,36.0,290.0207,-175.5072,-41.2257,69.6808,59.9323375,10.7183187,0.0
602.942344,-0.7887,0.0672,-1.0584,-1.4793,0.0362,-2.6233,0.0716,0.0773,-0.0473,1001.8774,32.22,5.28,64.02,36.0,292.2386,-175.9555,-39.6161,69.6808,59.9323375,10.7183187,0.0
602.96121,-0.797,0.0594,-1.0767,-1.4793,0.0362,-2.6233,0.0716,0.0773,-0.0473,1001.8774,32.88,4.98,64.56,36.0,292.2386,-175.9555,-39.6161,69.6808,59.9323375,10.7183187,0.0
602.982415,-0.8172,0.0491,-1.0987,-1.4793,0.0362,-2.6233,0.0716,0.0773,-0.0473,1001.8774,32.82,5.94,64.62,36.0,292.2386,-175.9555,-39.6161,69.6808,59.9323375,10.7183187,0.0
603.000503,-0.8488,0.0352,-1.1114,-1.7221,-0.1672,-3.2687,0.0081,-0.2434,-0.0901,1001.8774,33.0,6.42,64.68,36.0,293.6615,-176.2086,-39.9775,69.6808,59.9323375,10.7183187,0.0
603.020673,-0.882,0.0239,-1.1163,-1.7221,-0.1672,-3.2687,0.0081,-0.2434,-0.0901,1001.8774,32.82,6.06,64.98,36.0,293.6615,-176.2086,-39.9775,69.6808,59.9323375,10.7183187,0.0
603.04087,-0.9228,0.0149,-1.1092,-1.7221,-0.1672,-3.2687,0.0081,-0.2434,-0.0901,1001.8774,33.3,6.18,65.64,36.0,293.6615,-176.2086,-39.9775,69.6808,59.9323375,10.7183187,0.0
603.061526,-0.9768,0.0181,-1.1026,-2.6477,-0.4772,-3.462,-0.1501,-0.2239,-0.2282,1001.8774,34.08,6.3,66.18,36.0,293.9657,-176.3561,-40.805,69.6808,59.9323375,10.7183187,0.0
603.082066,-1.0444,0.0254,-1.1133,-2.6477,-0.4772,-3.462,-0.1501,-0.2239,-0.2282,1001.8926,33.42,5.94,65.58,36.0,293.9657,-176.3561,-40.805,69.6808,59.9323375,10.7183187,0.0
603.100826,-1.1045,0.0327,-1.1497,-2.6477,-0.4772,-3.462,-0.1501,-0.2239,-0.2282,1001.8926,32.76,5.04,64.68,36.0,293.9657,-176.3561,-40.805,69.6808,59.9323375,10.7183187,0.0
603.121162,-1.1439,0.0452,-1.1986,-4.2964,-0.28,-3.9741,-0.0976,-0.3546,-0.095,1001.8926,32.88,4.56,64.62,36.0,293.3067,-176.4876,-41.8312,65.6304,59.9323375,10.7183187,0.0
603.141447,-1.1309,0.0442,-1.1832,-4.2964,-0.28,-3.9741,-0.0976,-0.3546,-0.095,1001.8926,33.96,5.46,64.56,36.0,293.3067,-176.4876,-41.8312,65.6304,59.9323375,10.7183187,0.0
603.171614,-1.0694,0.0643,-1.0921,-4.4721,-0.2073,-4.3806,0.0154,-0.0235,0.1542,1001.9131,34.74,6.0,63.66,36.0,292.6705,-176.2543,-42.4992,65.6304,59.9323375,10.7183187,0.0
603.181084,-0.9983,0.0823,-1.0327,-4.4721,-0.2073,-4.3806,0.0154,-0.0235,0.1542,1001.9131,34.74,6.0,63.66,36.0,292.6705,-176.2543,-42.4992,65.6304,59.9323375,10.7183187,0.0
603.201579,-0.9511,0.0897,-1.0078,-4.4721,-0.2073,-4.3806,0.0154,-0.0235,0.1542,1001.9131,34.62,5.88,63.06,36.0,292.6705,-176.2543,-42.4992,65.6304,59.9323375,10.7183187,0.0
603.221077,-0.9233,0.087,-0.9948,-4.4721,-0.2073,-4.3806,0.0154,-0.0235,0.1542,1001.9131,34.8,5.76,63.42,36.0,292.6705,-176.2543,-42.4992,65.6304,59.9323375,10.7183187,0.0
603.241228,-0.9035,0.0909,-0.9809,-2.3311,0.1254,-2.6414,-0.0402,-0.3546,0.2001,1001.9131,34.98,6.0,63.42,36.0,291.7475,-175.7492,-43.3795,65.6304,59.9323375,10.7183187,0.0
603.260628,-0.893,0.0963,-0.9711,-2.3311,0.1254,-2.6414,-0.0402,-0.3546,0.2001,1001.9131,34.8,5.82,63.24,36.0,291.7475,-175.7492,-43.3795,65.6304,59.9323375,10.7183187,0.0
603.281428,-0.8693,0.0943,-0.9496,-2.3311,0.1254,-2.6414,-0.0402,-0.3546,0.2001,1001.8977,35.22,5.58,63.24,36.0,291.7475,-175.7492,-43.3795,65.6304,59.9323375,10.7183187,0.0
603.300946,-0.8409,0.0779,-0.9167,-1.7426,0.1299,-2.2623,-0.1275,0.1261,0.0406,1001.8977,35.34,4.86,63.24,36.0,290.4677,-175.3542,-43.8891,65.6304,59.9323375,10.7183187,0.0
603.320847,-0.8331,0.073,-0.9086,-1.7426,0.1299,-2.2623,-0.1275,0.1261,0.0406,1001.8977,35.34,4.8,63.84,36.0,290.4677,-175.3542,-43.8891,65.6304,59.9323375,10.7183187,0.0
603.345738,-0.8426,0.0877,-0.9181,-1.7426,0.1299,-2.2623,-0.1275,0.1261,0.0406,1001.8977,34.92,4.56,64.44,36.0,290.4677,-175.3542,-43.8891,65.6304,59.9323375,10.7183187,0.0
603.360822,-0.8314,0.0865,-0.8795,-1.5357,0.0079,-1.9086,-0.0487,-0.0089,0.0174,1001.8977,34.92,3.66,64.02,36.0,288.8128,-175.0182,-43.4783,65.6304,59.9323375,10.7183187,0.0
603.380639,-0.7984,0.0589,-0.8253,-1.5357,0.0079,-1.9086,-0.0487,-0.0089,0.0174,1001.896,34.68,3.9,62.28,36.0,288.8128,-175.0182,-43.4783,65.6304,59.9323375,10.7183187,0.0
603.4012,-0.7887,0.0432,-0.8177,-1.5357,0.0079,-1.9086,-0.0487,-0.0089,0.0174,1001.896,34.56,3.9,62.58,36.0,288.8128,-175.0182,-43.4783,65.6304,59.9323375,10.7183187,0.0
603.420788,-0.8111,0.0633,-0.8404,-0.8691,-0.5095,-1.068,-0.0261,-0.7987,0.0504,1001.896,35.16,3.24,63.24,36.0,286.5998,-174.5388,-44.643,73.0798,59.9323375,10.7183187,0.0
603.445623,-0.8224,0.0711,-0.8053,-0.8691,-0.5095,-1.068,-0.0261,-0.7987,0.0504,1001.896,34.86,2.94,61.68,36.0,286.5998,-174.5388,-44.643,73.0798,59.9323375,10.7183187,0.0
603.461633,-0.8099,0.0518,-0.7031,-0.8691,-0.5095,-1.068,-0.0261,-0.7987,0.0504,1001.896,35.76,3.42,60.36,36.0,286.5998,-174.5388,-44.643,73.0798,59.9323375,10.7183187,0.0
603.480724,-0.8172,0.0647,-0.6367,-0.727,-0.4446,-0.3122,-0.0237,-0.93,0.0651,1001.9138,36.72,3.36,59.64,36.0,285.7417,-174.428,-47.6222,73.0798,59.9323375,10.7183187,0.0
603.500323,-0.8148,0.0992,-0.6284,-0.727,-0.4446,-0.3122,-0.0237,-0.93,0.0651,1001.9138,36.48,2.28,60.06,36.0,285.7417,-174.428,-47.6222,73.0798,59.9323375,10.7183187,0.0
603.526881,-0.7845,0.1185,-0.612,-0.3222,0.0296,-0.1114,0.0057,-1.434,0.0834,1001.9138,37.2,1.32,61.14,36.0,284.2706,-174.4853,-51.7227,73.0798,59.9323375,10.7183187,0.0
603.54109,-0.7246,0.1046,-0.5368,-0.3222,0.0296,-0.1114,0.0057,-1.434,0.0834,1001.9138,37.2,1.32,61.14,36.0,284.2706,-174.4853,-51.7227,73.0798,59.9323375,10.7183187,0.0
603.562715,-0.6655,0.0777,-0.4727,-0.3222,0.0296,-0.1114,0.0057,-1.434,0.0834,1001.9138,38.7,2.52,56.64,36.0,284.2706,-174.4853,-51.7227,73.0798,59.9323375,10.7183187,0.0
603.580998,-0.6132,0.0542,-0.4366,-0.3222,0.0296,-0.1114,0.0057,-1.434,0.0834,1001.9194,40.2,3.6,54.0,36.0,284.2706,-174.4853,-51.7227,73.0798,59.9323375,10.7183187,0.0
603.601063,-0.5663,0.0498,-0.4104,2.1205,-0.4676,1.1133,-0.0579,-1.5098,0.0363,1001.9194,40.56,2.82,53.7,36.0,282.0941,-174.1525,-56.4489,73.0798,59.9323375,10.7183187,0.0
603.620977,-0.5192,0.0447,-0.3799,2.1205,-0.4676,1.1133,-0.0579,-1.5098,0.0363,1001.9194,40.92,2.28,52.68,36.0,282.0941,-174.1525,-56.4489,73.0798,59.9323375,10.7183187,0.0
603.641722,-0.474,0.0386,-0.3613,2.1205,-0.4676,1.1133,-0.0579,-1.5098,0.0363,1001.9194,42.48,2.94,50.52,36.0,282.0941,-174.1525,-56.4489,73.0798,59.9323375,10.7183187,0.0
603.66128,-0.43,0.0357,-0.3374,3.9164,-0.6218,1.1362,-0.0805,-1.1133,-0.1084,1001.9194,42.78,2.88,48.9,36.0,281.0672,-174.1466,-61.3508,73.0798,59.9323375,10.7183187,0.0
603.683504,-0.4075,0.0325,-0.3408,3.9164,-0.6218,1.1362,-0.0805,-1.1133,-0.1084,1001.9006,42.42,2.58,47.4,36.0,281.0672,-174.1466,-61.3508,73.0798,59.9323375,10.7183187,0.0
603.701709,-0.3972,0.0315,-0.3352,3.9164,-0.6218,1.1362,-0.0805,-1.1133,-0.1084,1001.9006,43.14,2.88,46.8,36.0,281.0672,-174.1466,-61.3508,73.0798,59.9323375,10.7183187,0.0
603.721558,-0.399,0.0379,-0.3095,4.887,-0.6682,0.9727,-0.1923,-0.3619,-0.1109,1001.9006,43.2,2.88,47.1,36.0,280.5883,-174.2821,-64.1307,74.4528,59.9323375,10.7183187,0.0
603.74096,-0.4102,0.0491,-0.2827,4.887,-0.6682,0.9727,-0.1923,-0.3619,-0.1109,1001.9006,44.16,3.24,46.5,36.0,280.5883,-174.2821,-64.1307,74.4528,59.9323375,10.7183187,0.0
603.761659,-0.4547,0.0601,-0.2912,4.887,-0.6682,0.9727,-0.1923,-0.3619,-0.1109,1001.9006,44.1,2.46,46.2,36.0,280.5883,-174.2821,-64.1307,74.4528,59.9323375,10.7183187,0.0
603.78225,-0.5243,0.063,-0.3093,4.4099,-0.4009,1.2195,-0.2607,-0.6399,-0.0516,1001.9119,43.14,1.92,45.78,36.0,278.8193,-174.207,-65.323,74.4528,59.9323375,10.7183187,0.0
603.801456,-0.6233,0.0745,-0.2968,4.4099,-0.4009,1.2195,-0.2607,-0.6399,-0.0516,1001.9119,44.16,2.1,44.64,36.0,278.8193,-174.207,-65.323,74.4528,59.9323375,10.7183187,0.0
603.820925,-0.7322,0.0823,-0.237,4.4099,-0.4009,1.2195,-0.2607,-0.6399,-0.0516,1001.9119,45.24,2.58,43.8,36.0,278.8193,-174.207,-65.323,74.4528,59.9323375,10.7183187,0.0
603.841809,-0.817,0.0836,-0.1625,1.9443,-0.1814,1.1445,-0.2509,-1.8964,-0.161,1001.9119,45.78,3.48,42.42,36.0,278.0504,-174.2164,-69.1863,74.4528,59.9323375,10.7183187,0.0
603.861097,-0.8966,0.0831,-0.1439,1.9443,-0.1814,1.1445,-0.2509,-1.8964,-0.161,1001.9119,46.14,2.88,41.64,36.0,278.0504,-174.2164,-69.1863,74.4528,59.9323375,10.7183187,0.0
603.880985,-0.9352,0.0728,-0.1268,1.9443,-0.1814,1.1445,-0.2509,-1.8964,-0.161,1001.8896,46.14,2.58,40.14,36.0,278.0504,-174.2164,-69.1863,74.4528,59.9323375,10.7183187,0.0
603.901318,-0.9216,0.0611,-0.085,0.3816,-0.2407,0.7864,-0.1562,-2.8243,-0.0687,1001.8896,46.38,2.94,37.86,36.0,278.1445,-174.4161,-78.0016,74.4528,59.9323375,10.7183187,0.0
603.920959,-0.915,0.0503,-0.0369,0.3816,-0.2407,0.7864,-0.1562,-2.8243,-0.0687,1001.8896,47.28,3.3,35.64,36.0,278.1445,-174.4161,-78.0016,74.4528,59.9323375,10.7183187,0.0
603.950569,-0.9333,0.0572,-0.0227,0.7579,-0.4227,0.5137,-0.0725,-0.5476,-0.1487,1001.8896,46.74,2.04,33.12,36.0,280.9431,-174.641,-84.8568,74.4528,59.9323375,10.7183187,0.0
603.961228,-0.9861,0.0723,-0.0186,0.7579,-0.4227,0.5137,-0.0725,-0.5476,-0.1487,1001.8896,46.74,2.04,33.12,36.0,280.9431,-174.641,-84.8568,74.4528,59.9323375,10.7183187,0.0
603.981009,-1.0381,0.0782,-0.0115,0.7579,-0.4227,0.5137,-0.0725,-0.5476,-0.1487,1001.874,46.02,1.2,32.7,36.0,280.9431,-174.641,-84.8568,74.4528,59.9323375,10.7183187,0.0
604.001775,-1.0794,0.0977,-0.0374,0.7579,-0.4227,0.5137,-0.0725,-0.5476,-0.1487,1001.874,47.04,2.46,31.5,36.0,280.9431,-174.641,-84.8568,74.4528,59.9323375,10.7183187,0.0
604.020258,-1.0899,0.1422,-0.0726,-0.8607,0.0806,0.6224,0.1596,0.5366,0.0376,1001.874,47.1,2.76,31.92,36.0,278.9542,-174.8685,-84.1904,72.2052,59.9323375,10.7183187,0.0
604.039963,-1.0347,0.1654,-0.0733,-0.8607,0.0806,0.6224,0.1596,0.5366,0.0376,1001.874,46.68,2.52,34.08,36.0,278.9542,-174.8685,-84.1904,72.2052,59.9323375,10.7183187,0.0
604.061611,-0.9677,0.1451,-0.0535,-0.8607,0.0806,0.6224,0.1596,0.5366,0.0376,1001.874,46.08,1.92,36.24,36.0,278.9542,-174.8685,-84.1904,72.2052,59.9323375,10.7183187,0.0
604.079929,-0.9418,0.1007,-0.0589,0.2272,0.535,0.5158,0.0392,-0.6613,-0.0205,1001.8906,45.42,1.56,35.94,36.0,277.9182,-174.8099,-83.8867,72.2052,59.9323375,10.7183187,0.0
604.100156,-0.9426,0.0567,-0.032,0.2272,0.535,0.5158,0.0392,-0.6613,-0.0205,1001.8906,45.84,1.92,35.1,37.0,277.9182,-174.8099,-83.8867,72.2052,59.9323375,10.7183187,0.0
604.120218,-0.9819,0.0379,-0.0024,0.2272,0.535,0.5158,0.0392,-0.6613,-0.0205,1001.8906,44.22,0.06,34.14,37.0,277.9182,-174.8099,-83.8867,72.2052,59.9323375,10.7183187,0.0
604.142719,-1.0151,0.0242,-0.0254,0.1306,-0.4714,0.555,-0.0518,-0.5183,-0.1378,1001.8906,44.52,-0.36,32.76,37.0,280.2987,-175.0715,-86.6031,72.2052,59.9323375,10.7183187,0.0
604.161034,-1.01,0.0349,-0.0144,0.1306,-0.4714,0.555,-0.0518,-0.5183,-0.1378,1001.8906,47.04,1.68,32.4,37.0,280.2987,-175.0715,-86.6031,72.2052,59.9323375,10.7183187,0.0
604.181851,-0.9978,0.0555,-0.0298,0.1306,-0.4714,0.555,-0.0518,-0.5183,-0.1378,1001.8684,47.52,3.06,31.26,37.0,280.2987,-175.0715,-86.6031,72.2052,59.9323375,10.7183187,0.0
604.200567,-0.997,0.0669,-0.0459,-0.0243,-0.2691,0.3167,0.1407,0.5208,0.0351,1001.8684,47.28,3.6,29.82,37.0,279.6376,-175.2471,-86.4287,72.2052,59.9323375,10.7183187,0.0
604.2208,-0.9934,0.0748,-0.0469,-0.0243,-0.2691,0.3167,0.1407,0.5208,0.0351,1001.8684,47.16,4.08,28.02,37.0,279.6376,-175.2471,-86.4287,72.2052,59.9323375,10.7183187,0.0
604.240862,-0.9817,0.0806,-0.0523,-0.0243,-0.2691,0.3167,0.1407,0.5208,0.0351,1001.8684,47.94,4.02,28.44,37.0,279.6376,-175.2471,-86.4287,72.2052,59.9323375,10.7183187,0.0
604.261473,-0.9689,0.0867,-0.0513,0.1186,-0.0061,0.3197,0.1407,0.12,-0.0296,1001.8684,48.18,3.12,30.48,37.0,278.4147,-175.343,-85.1164,72.2052,59.9323375,10.7183187,0.0
604.28029,-0.9545,0.0831,-0.0447,0.1186,-0.0061,0.3197,0.1407,0.12,-0.0296,1001.8745,47.28,2.7,31.08,37.0,278.4147,-175.343,-85.1164,72.2052,59.9323375,10.7183187,0.0
604.300113,-0.9401,0.0748,-0.0406,0.1186,-0.0061,0.3197,0.1407,0.12,-0.0296,1001.8745,46.38,2.22,32.7,37.0,278.4147,-175.343,-85.1164,72.2052,59.9323375,10.7183187,0.0
604.320466,-0.9137,0.0638,-0.0342,0.5218,-0.0514,0.4892,0.2017,0.277,0.0443,1001.8745,45.78,1.62,33.0,37.0,278.624,-175.4142,-84.7958,66.387,59.9323375,10.7183187,0.0
604.340982,-0.8585,0.054,-0.0318,0.5218,-0.0514,0.4892,0.2017,0.277,0.0443,1001.8745,43.62,0.0,33.18,37.0,278.624,-175.4142,-84.7958,66.387,59.9323375,10.7183187,0.0
604.360542,-0.7669,0.0445,-0.0472,0.5218,-0.0514,0.4892,0.2017,0.277,0.0443,1001.8745,43.26,-0.18,34.14,37.0,278.624,-175.4142,-84.7958,66.387,59.9323375,10.7183187,0.0
604.380743,-0.6655,0.0376,-0.0691,2.1912,-0.3728,0.6751,0.2714,0.4859,0.0846,1001.8555,44.7,0.84,33.3,37.0,276.7362,-175.2706,-83.3183,66.387,59.9323375,10.7183187,0.0
604.401743,-0.5773,0.0344,-0.0999,2.1912,-0.3728,0.6751,0.2714,0.4859,0.0846,1001.8555,43.14,-0.9,34.02,37.0,276.7362,-175.2706,-83.3183,66.387,59.9323375,10.7183187,0.0
604.420675,-0.5175,0.0359,-0.1229,2.1912,-0.3728,0.6751,0.2714,0.4859,0.0846,1001.8555,42.84,-1.38,37.68,37.0,276.7362,-175.2706,-83.3183,66.387,59.9323375,10.7183187,0.0
604.442844,-0.4996,0.0528,-0.1334,4.5899,-0.4998,0.2471,0.2531,0.7004,0.164,1001.8555,42.18,-1.92,40.44,37.0,274.4289,-175.0172,-81.4564,66.387,59.9323375,10.7183187,0.0
604.46055,-0.5202,0.073,-0.1383,4.5899,-0.4998,0.2471,0.2531,0.7004,0.164,1001.8555,42.72,-1.56,40.38,37.0,274.4289,-175.0172,-81.4564,66.387,59.9323375,10.7183187,0.0
604.479886,-0.5869,0.0985,-0.1573,4.5899,-0.4998,0.2471,0.2531,0.7004,0.164,1001.8398,44.52,0.36,41.16,37.0,274.4289,-175.0172,-81.4564,66.387,59.9323375,10.7183187,0.0
604.500176,-0.7005,0.1085,-0.1823,3.8028,0.0337,0.464,0.1773,1.1689,0.1713,1001.8398,43.62,-0.72,42.48,36.0,271.5468,-174.5515,-78.1428,66.387,59.9323375,10.7183187,0.0
604.519809,-0.7745,0.0743,-0.1923,3.8028,0.0337,0.464,0.1773,1.1689,0.1713,1001.8398,41.46,-3.12,44.4,36.0,271.5468,-174.5515,-78.1428,66.387,59.9323375,10.7183187,0.0
604.540137,-0.7808,0.03,-0.2362,3.8028,0.0337,0.464,0.1773,1.1689,0.1713,1001.8398,39.96,-4.56,47.46,36.0,271.5468,-174.5515,-78.1428,66.387,59.9323375,10.7183187,0.0
604.56027,-0.7662,0.0242,-0.2744,1.7372,-0.6902,0.3382,0.0753,0.9416,0.004,1001.8398,38.88,-5.16,47.1,36.0,267.7513,-174.237,-74.2202,66.387,59.9323375,10.7183187,0.0
604.580413,-0.7794,0.0518,-0.2599,1.7372,-0.6902,0.3382,0.0753,0.9416,0.004,1001.8347,39.72,-4.32,46.62,36.0,267.7513,-174.237,-74.2202,66.387,59.9323375,10.7183187,0.0
604.6008,-0.7974,0.0982,-0.238,1.7372,-0.6902,0.3382,0.0753,0.9416,0.004,1001.8347,40.98,-2.88,47.22,36.0,267.7513,-174.237,-74.2202,66.387,59.9323375,10.7183187,0.0
604.620309,-0.7647,0.1353,-0.2531,1.4243,0.0126,0.8151,0.1742,0.7083,0.0192,1001.8347,42.0,-1.5,46.74,36.0,267.2415,-174.4414,-71.1901,62.8213,59.9323375,10.7183187,0.0
604.64032,-0.7085,0.1427,-0.2956,1.4243,0.0126,0.8151,0.1742,0.7083,0.0192,1001.8347,43.08,-0.54,46.26,36.0,267.2415,-174.4414,-71.1901,62.8213,59.9323375,10.7183187,0.0
604.666165,-0.6875,0.1307,-0.3257,2.164,0.4567,0.6154,0.0283,0.8451,0.0504,1001.8342,45.66,4.26,42.78,36.0,268.6165,-174.4908,-68.9107,62.8213,59.9323375,10.7183187,0.0
604.68084,-0.7053,0.0975,-0.3882,2.164,0.4567,0.6154,0.0283,0.8451,0.0504,1001.8342,45.66,4.26,42.78,36.0,268.6165,-174.4908,-68.9107,62.8213,59.9323375,10.7183187,0.0
604.701215,-0.751,0.0701,-0.4263,2.164,0.4567,0.6154,0.0283,0.8451,0.0504,1001.8342,46.26,5.04,43.08,36.0,268.6165,-174.4908,-68.9107,62.8213,59.9323375,10.7183187,0.0
604.726979,-0.8268,0.0655,-0.4593,1.4757,-0.2435,-0.0266,-0.141,1.6619,-0.2575,1001.8342,44.58,3.54,46.32,35.0,271.1477,-174.5546,-64.8346,62.8213,59.9323375,10.7183187,0.0
604.741276,-0.9057,0.0599,-0.4754,1.4757,-0.2435,-0.0266,-0.141,1.6619,-0.2575,1001.8342,44.58,3.54,46.32,35.0,271.1477,-174.5546,-64.8346,62.8213,59.9323375,10.7183187,0.0
604.761892,-0.9594,0.0418,-0.4835,1.4757,-0.2435,-0.0266,-0.141,1.6619,-0.2575,1001.8342,43.8,3.66,47.82,35.0,271.1477,-174.5546,-64.8346,62.8213,59.9323375,10.7183187,0.0
604.783177,-0.9707,0.0296,-0.5299,1.4757,-0.2435,-0.0266,-0.141,1.6619,-0.2575,1001.8525,43.2,4.14,49.68,35.0,271.1477,-174.5546,-64.8346,62.8213,59.9323375,10.7183187,0.0
604.801674,-0.9455,0.0252,-0.5915,-1.0821,-0.5379,-0.2522,0.0148,1.0156,-0.1506,1001.8525,42.42,4.26,50.28,35.0,274.8914,-175.159,-59.625,62.8213,59.9323375,10.7183187,0.0
604.82135,-0.9233,0.0349,-0.646,-1.0821,-0.5379,-0.2522,0.0148,1.0156,-0.1506,1001.8525,42.18,4.8,51.12,35.0,274.8914,-175.159,-59.625,62.8213,59.9323375,10.7183187,0.0
604.842033,-0.9216,0.0454,-0.6692,-1.0821,-0.5379,-0.2522,0.0148,1.0156,-0.1506,1001.8525,42.0,5.04,52.26,35.0,274.8914,-175.159,-59.625,62.8213,59.9323375,10.7183187,0.0
604.862899,-0.9245,0.0638,-0.6484,-0.8004,-0.2797,-1.2762,0.2421,0.5085,-0.0192,1001.8525,41.28,5.34,52.62,35.0,279.4599,-175.7604,-57.311,62.8213,59.9323375,10.7183187,0.0
604.880527,-0.9169,0.0823,-0.6259,-0.8004,-0.2797,-1.2762,0.2421,0.5085,-0.0192,1001.8499,41.34,5.58,52.98,35.0,279.4599,-175.7604,-57.311,62.8213,59.9323375,10.7183187,0.0
604.905189,-0.9084,0.0994,-0.6462,-0.8817,0.1468,-0.6516,0.2109,0.1604,0.0589,1001.8499,41.58,6.42,53.88,35.0,283.127,-176.1407,-55.9204,62.8213,59.9323375,10.7183187,0.0
604.921126,-0.9382,0.1192,-0.7034,-0.8817,0.1468,-0.6516,0.2109,0.1604,0.0589,1001.8499,41.58,6.42,53.88,35.0,283.127,-176.1407,-55.9204,63.1163,59.9323375,10.7183187,0.0
604.94078,-0.9865,0.1212,-0.7471,-0.8817,0.1468,-0.6516,0.2109,0.1604,0.0589,1001.8499,41.52,6.54,54.18,35.0,283.127,-176.1407,-55.9204,63.1163,59.9323375,10.7183187,0.0
604.962369,-1.0244,0.1114,-0.7454,-0.8817,0.1468,-0.6516,0.2109,0.1604,0.0589,1001.8499,41.04,5.64,54.78,35.0,283.127,-176.1407,-55.9204,63.1163,59.9323375,10.7183187,0.0
604.980377,-1.0549,0.0894,-0.7542,-2.039,0.4643,-1.6682,0.0417,0.6264,-0.0217,1001.8784,40.26,5.46,54.66,35.0,285.2873,-176.3316,-54.832,63.1163,59.9323375,10.7183187,0.0
605.000712,-1.0767,0.0613,-0.7989,-2.039,0.4643,-1.6682,0.0417,0.6264,-0.0217,1001.8784,40.44,6.42,55.08,35.0,285.2873,-176.3316,-54.832,63.1163,59.9323375,10.7183187,0.0
605.023997,-1.0894,0.0279,-0.8607,-2.7323,0.0234,-1.9391,-0.0017,0.2935,-0.1842,1001.8784,40.8,6.42,57.78,35.0,287.0201,-176.6237,-53.0094,63.1163,59.9323375,10.7183187,0.0
605.040088,-1.108,0.0156,-0.9037,-2.7323,0.0234,-1.9391,-0.0017,0.2935,-0.1842,1001.8784,40.8,6.42,57.78,35.0,287.0201,-176.6237,-53.0094,63.1163,59.9323375,10.7183187,0.0
605.061004,-1.1495,0.0217,-0.9252,-2.7323,0.0234,-1.9391,-0.0017,0.2935,-0.1842,1001.8784,40.2,6.12,58.38,35.0,287.0201,-176.6237,-53.0094,63.1163,59.9323375,10.7183187,0.0
605.082644,-1.1942,0.0413,-0.9323,-2.7323,0.0234,-1.9391,-0.0017,0.2935,-0.1842,1001.8604,39.12,6.42,58.32,35.0,287.0201,-176.6237,-53.0094,63.1163,59.9323375,10.7183187,0.0
605.100951,-1.234,0.0684,-0.9423,-3.9379,-0.087,-3.1675,0.0771,-0.0797,-0.0363,1001.8604,39.42,6.96,57.36,35.0,288.4662,-177.1265,-52.4511,63.1163,59.9323375,10.7183187,0.0
605.120529,-1.2687,0.0796,-0.9462,-3.9379,-0.087,-3.1675,0.0771,-0.0797,-0.0363,1001.8604,39.72,7.14,56.88,35.0,288.4662,-177.1265,-52.4511,63.1163,59.9323375,10.7183187,0.0
605.141416,-1.3129,0.0862,-0.9475,-3.9379,-0.087,-3.1675,0.0771,-0.0797,-0.0363,1001.8604,39.78,7.5,58.02,35.0,288.4662,-177.1265,-52.4511,63.1163,59.9323375,10.7183187,0.0
605.162366,-1.3508,0.0958,-0.9496,-4.9861,0.347,-3.4698,0.0454,-0.5666,0.1097,1001.8604,39.3,7.02,57.6,35.0,289.3216,-177.0884,-53.5757,63.1163,59.9323375,10.7183187,0.0
605.18173,-1.3794,0.0965,-0.9431,-4.9861,0.347,-3.4698,0.0454,-0.5666,0.1097,1001.8777,39.78,7.08,56.4,35.0,289.3216,-177.0884,-53.5757,63.1163,59.9323375,10.7183187,0.0
605.205903,-1.3811,0.0684,-0.9176,-5.4635,0.4327,-3.6713,-0.1403,-0.1976,-0.1426,1001.8777,40.92,7.86,55.56,35.0,289.2415,-177.0012,-55.3316,63.1163,59.9323375,10.7183187,0.0
605.220713,-1.3208,0.0342,-0.8566,-5.4635,0.4327,-3.6713,-0.1403,-0.1976,-0.1426,1001.8777,40.92,7.86,55.56,35.0,289.2415,-177.0012,-55.3316,63.8795,59.9323375,10.7183187,0.0
605.245799,-1.233,-0.0037,-0.8378,-5.4635,0.4327,-3.6713,-0.1403,-0.1976,-0.1426,1001.8777,41.22,7.98,56.58,35.0,289.2415,-177.0012,-55.3316,63.8795,59.9323375,10.7183187,0.0
605.261757,-1.1644,-0.0137,-0.8324,-5.4635,0.4327,-3.6713,-0.1403,-0.1976,-0.1426,1001.8777,41.16,6.84,57.66,35.0,289.2415,-177.0012,-55.3316,63.8795,59.9323375,10.7183187,0.0
605.281124,-1.1136,-0.0086,-0.7811,-3.3089,-0.6238,-2.6542,-0.0848,-0.1225,-0.1035,1001.8779,40.5,6.84,56.4,35.0,289.0926,-177.1374,-55.8151,63.8795,59.9323375,10.7183187,0.0
605.301121,-1.0852,0.0154,-0.7442,-3.3089,-0.6238,-2.6542,-0.0848,-0.1225,-0.1035,1001.8779,41.04,7.74,54.72,34.0,289.0926,-177.1374,-55.8151,63.8795,59.9323375,10.7183187,0.0
605.321008,-1.073,0.0445,-0.7134,-3.3089,-0.6238,-2.6542,-0.0848,-0.1225,-0.1035,1001.8779,41.46,7.56,54.84,34.0,289.0926,-177.1374,-55.8151,63.8795,59.9323375,10.7183187,0.0
605.341874,-1.0593,0.0638,-0.6807,-2.3744,-0.0641,-1.547,-0.0359,-0.2214,0.0925,1001.8779,40.74,6.3,55.32,34.0,289.1631,-177.0781,-56.2277,63.8795,59.9323375,10.7183187,0.0
605.36261,-1.0374,0.0792,-0.6506,-2.3744,-0.0641,-1.547,-0.0359,-0.2214,0.0925,1001.8779,41.28,6.48,54.66,34.0,289.1631,-177.0781,-56.2277,63.8795,59.9323375,10.7183187,0.0
605.381783,-1.0112,0.0838,-0.6426,-2.3744,-0.0641,-1.547,-0.0359,-0.2214,0.0925,1001.8884,40.8,6.36,54.24,34.0,289.1631,-177.0781,-56.2277,63.8795,59.9323375,10.7183187,0.0
605.400878,-0.978,0.0704,-0.6362,-1.6798,0.2486,-0.9953,-0.1678,-0.3302,0.04,1001.8884,40.5,6.42,53.76,34.0,287.9432,-176.6527,-57.2108,63.8795,59.9323375,10.7183187,0.0
605.420511,-0.9465,0.0435,-0.6203,-1.6798,0.2486,-0.9953,-0.1678,-0.3302,0.04,1001.8884,41.52,6.48,53.4,34.0,287.9432,-176.6527,-57.2108,63.8795,59.9323375,10.7183187,0.0
605.440468,-0.9343,0.0137,-0.5983,-1.6798,0.2486,-0.9953,-0.1678,-0.3302,0.04,1001.8884,41.94,5.94,52.68,34.0,287.9432,-176.6527,-57.2108,63.8795,59.9323375,10.7183187,0.0
605.461274,-0.936,0.0078,-0.5903,-0.8511,-0.5029,-0.6871,-0.1135,-0.1665,0.0363,1001.8884,41.46,5.46,52.86,34.0,286.5059,-176.276,-58.063,63.8795,59.9323375,10.7183187,0.0
605.480715,-0.9482,0.0132,-0.5761,-0.8511,-0.5029,-0.6871,-0.1135,-0.1665,0.0363,1001.8894,41.58,5.46,53.28,34.0,286.5059,-176.276,-58.063,63.8795,59.9323375,10.7183187,0.0
605.502156,-0.9521,0.0288,-0.5632,-0.8511,-0.5029,-0.6871,-0.1135,-0.1665,0.0363,1001.8894,42.12,6.18,52.44,34.0,286.5059,-176.276,-58.063,63.8795,59.9323375,10.7183187,0.0
605.520614,-0.9455,0.0428,-0.5522,-0.9504,-0.4016,-0.4716,-0.0273,-0.4468,0.1078,1001.8894,42.48,5.76,51.78,34.0,286.8954,-175.9999,-58.9394,77.3553,59.9323375,10.7183187,0.0
605.54108,-0.9365,0.0476,-0.5524,-0.9504,-0.4016,-0.4716,-0.0273,-0.4468,0.1078,1001.8894,42.42,5.28,51.72,34.0,286.8954,-175.9999,-58.9394,77.3553,59.9323375,10.7183187,0.0
605.567433,-0.9147,0.0442,-0.5312,-0.6268,-0.2886,-0.6714,-0.0035,-0.7566,0.1738,1001.8845,43.14,4.92,49.74,34.0,285.5984,-175.5818,-60.9868,77.3553,59.9323375,10.7183187,0.0
605.581551,-0.8808,0.0401,-0.461,-0.6268,-0.2886,-0.6714,-0.0035,-0.7566,0.1738,1001.8845,43.14,4.92,49.74,34.0,285.5984,-175.5818,-60.9868,77.3553,59.9323375,10.7183187,0.0
605.600525,-0.861,0.0584,-0.4258,-0.6268,-0.2886,-0.6714,-0.0035,-0.7566,0.1738,1001.8845,43.86,5.76,48.06,34.0,285.5984,-175.5818,-60.9868,77.3553,59.9323375,10.7183187,0.0
605.624937,-0.8742,0.0787,-0.4393,-0.6268,-0.2886,-0.6714,-0.0035,-0.7566,0.1738,1001.8845,43.74,5.46,47.7,34.0,285.5984,-175.5818,-60.9868,77.3553,59.9323375,10.7183187,0.0
605.641681,-0.8473,0.0511,-0.4097,0.226,-0.0516,-0.0409,-0.0145,-1.1341,0.1457,1001.8845,43.62,4.8,47.4,34.0,284.3622,-175.1889,-64.1296,77.3553,59.9323375,10.7183187,0.0
605.663513,-0.7923,0.0164,-0.3723,0.226,-0.0516,-0.0409,-0.0145,-1.1341,0.1457,1001.8845,43.68,4.26,46.2,34.0,284.3622,-175.1889,-64.1296,77.3553,59.9323375,10.7183187,0.0
605.689558,-0.7652,0.0081,-0.3684,1.2547,-0.7188,0.0993,0.002,-1.007,0.0363,1001.8899,44.82,4.14,44.52,34.0,283.1079,-174.8564,-67.4343,77.3553,59.9323375,10.7183187,0.0
605.701817,-0.7549,0.0403,-0.3501,1.2547,-0.7188,0.0993,0.002,-1.007,0.0363,1001.8899,44.82,4.14,44.52,34.0,283.1079,-174.8564,-67.4343,77.3553,59.9323375,10.7183187,0.0
605.721092,-0.732,0.0821,-0.2978,1.2547,-0.7188,0.0993,0.002,-1.007,0.0363,1001.8899,45.66,4.56,42.96,34.0,283.1079,-174.8564,-67.4343,77.3553,59.9323375,10.7183187,0.0
605.740542,-0.6677,0.0816,-0.2421,1.2547,-0.7188,0.0993,0.002,-1.007,0.0363,1001.8899,45.66,3.66,42.9,34.0,283.1079,-174.8564,-67.4343,77.3553,59.9323375,10.7183187,0.0
605.761205,-0.593,0.0359,-0.2167,2.6798,-0.1006,0.8348,-0.0603,-1.0602,0.1524,1001.8899,45.12,2.58,41.88,34.0,281.906,-174.7325,-70.825,77.3553,59.9323375,10.7183187,0.0
605.780696,-0.5319,-0.0039,-0.2365,2.6798,-0.1006,0.8348,-0.0603,-1.0602,0.1524,1001.8901,45.54,3.24,40.14,34.0,281.906,-174.7325,-70.825,77.3553,59.9323375,10.7183187,0.0
605.80082,-0.4942,0.0015,-0.2509,2.6798,-0.1006,0.8348,-0.0603,-1.0602,0.1524,1001.8901,45.84,2.7,40.26,34.0,281.906,-174.7325,-70.825,77.3553,59.9323375,10.7183187,0.0
605.82083,-0.4796,0.0349,-0.2372,4.5818,-0.996,0.054,-0.1281,-1.1347,-0.0021,1001.8901,46.5,2.46,39.42,34.0,278.3771,-174.0866,-75.0719,73.8841,59.9323375,10.7183187,0.0
605.839715,-0.4984,0.0425,-0.1957,4.5818,-0.996,0.054,-0.1281,-1.1347,-0.0021,1001.8901,47.22,2.64,38.1,34.0,278.3771,-174.0866,-75.0719,73.8841,59.9323375,10.7183187,0.0
605.86297,-0.5434,0.0274,-0.1581,4.5818,-0.996,0.054,-0.1281,-1.1347,-0.0021,1001.8901,47.28,2.16,37.2,34.0,278.3771,-174.0866,-75.0719,73.8841,59.9323375,10.7183187,0.0
605.881949,-0.5954,0.0493,-0.1268,4.2137,-0.753,0.4858,-0.3419,-0.5562,-0.0651,1001.916,47.58,1.86,36.9,34.0,276.8764,-174.0231,-77.9576,73.8841,59.9323375,10.7183187,0.0
605.901455,-0.6281,0.0672,-0.1268,4.2137,-0.753,0.4858,-0.3419,-0.5562,-0.0651,1001.916,46.86,1.08,37.02,34.0,276.8764,-174.0231,-77.9576,73.8841,59.9323375,10.7183187,0.0
605.921783,-0.6572,0.0484,-0.1417,4.2137,-0.753,0.4858,-0.3419,-0.5562,-0.0651,1001.916,46.62,1.62,35.28,34.0,276.8764,-174.0231,-77.9576,73.8841,59.9323375,10.7183187,0.0
605.940885,-0.7305,0.0269,-0.1014,3.1765,-0.5072,0.2598,-0.2705,-0.723,-0.0473,1001.916,47.46,2.58,33.66,34.0,276.1808,-174.2573,-80.274,73.8841,59.9323375,10.7183187,0.0
605.961773,-0.8319,0.0195,-0.0493,3.1765,-0.5072,0.2598,-0.2705,-0.723,-0.0473,1001.916,47.28,2.46,32.7,34.0,276.1808,-174.2573,-80.274,73.8841,59.9323375,10.7183187,0.0
605.981266,-0.9362,0.0337,-0.0506,3.1765,-0.5072,0.2598,-0.2705,-0.723,-0.0473,1001.9036,47.34,2.46,32.1,34.0,276.1808,-174.2573,-80.274,73.8841,59.9323375,10.7183187,0.0
605.999725,-1.0181,0.0552,-0.1077,0.5142,-0.6228,0.6806,-0.2576,-1.0479,-0.23,1001.9036,47.64,3.12,31.5,34.0,276.6823,-174.4223,-83.0787,73.8841,59.9323375,10.7183187,0.0
606.020211,-1.0071,0.0633,-0.0821,0.5142,-0.6228,0.6806,-0.2576,-1.0479,-0.23,1001.9036,47.28,3.06,30.36,34.0,276.6823,-174.4223,-83.0787,73.8841,59.9323375,10.7183187,0.0
606.043488,-0.9179,0.0643,0.0147,-0.1262,-0.2289,-0.0814,-0.1935,-0.3479,-0.1432,1001.9036,44.16,-0.42,39.66,34.0,279.051,-175.0333,-85.7558,73.8841,59.9323375,10.7183187,0.0
606.060579,-0.8969,0.0792,0.0024,-0.1262,-0.2289,-0.0814,-0.1935,-0.3479,-0.1432,1001.9036,44.16,-0.42,39.66,34.0,279.051,-175.0333,-85.7558,73.8841,59.9323375,10.7183187,0.0
606.080993,-0.9242,0.0779,-0.0227,-0.1262,-0.2289,-0.0814,-0.1935,-0.3479,-0.1432,1001.9045,45.3,-0.78,38.4,34.0,279.051,-175.0333,-85.7558,73.8841,59.9323375,10.7183187,0.0
606.100507,-0.9572,0.064,0.0161,-0.1262,-0.2289,-0.0814,-0.1935,-0.3479,-0.1432,1001.9045,47.28,2.28,32.46,34.0,279.051,-175.0333,-85.7558,73.8841,59.9323375,10.7183187,0.0
606.120368,-1.011,0.0672,0.0264,0.3853,-0.1447,0.6029,-0.0505,-0.3247,-0.0944,1001.9045,48.54,4.14,29.34,34.0,280.2296,-175.4849,-87.3917,68.2307,59.9323375,10.7183187,0.0
606.140953,-1.076,0.0928,-0.0239,0.3853,-0.1447,0.6029,-0.0505,-0.3247,-0.0944,1001.9045,47.88,3.6,28.8,34.0,280.2296,-175.4849,-87.3917,68.2307,59.9323375,10.7183187,0.0
606.161931,-1.0862,0.1239,-0.0574,0.3853,-0.1447,0.6029,-0.0505,-0.3247,-0.0944,1001.9045,47.76,3.3,27.66,34.0,280.2296,-175.4849,-87.3917,68.2307,59.9323375,10.7183187,0.0
606.18044,-1.0369,0.1024,-0.0313,-0.8717,0.4818,-0.2201,-0.0237,0.2807,0.004,1001.8945,48.36,4.08,27.06,34.0,281.3192,-175.7188,-87.9928,68.2307,59.9323375,10.7183187,0.0
606.202025,-1.0014,0.0486,-0.032,-0.8717,0.4818,-0.2201,-0.0237,0.2807,0.004,1001.8945,48.84,4.56,27.24,34.0,281.3192,-175.7188,-87.9928,68.2307,59.9323375,10.7183187,0.0
606.221004,-1.0017,0.0061,-0.0332,-0.8717,0.4818,-0.2201,-0.0237,0.2807,0.004,1001.8945,48.12,4.2,27.66,34.0,281.3192,-175.7188,-87.9928,68.2307,59.9323375,10.7183187,0.0
606.240502,-1.0134,-0.002,-0.031,-0.0517,-0.6732,0.2047,0.0148,0.0675,-0.0834,1001.8945,47.22,3.9,28.08,34.0,280.0556,-175.7132,-86.8912,68.2307,59.9323375,10.7183187,0.0
606.26066,-1.0249,0.0198,-0.0213,-0.0517,-0.6732,0.2047,0.0148,0.0675,-0.0834,1001.8945,47.7,4.32,27.9,34.0,280.0556,-175.7132,-86.8912,68.2307,59.9323375,10.7183187,0.0
606.280906,-1.0295,0.0547,-0.0149,-0.0517,-0.6732,0.2047,0.0148,0.0675,-0.0834,1001.8672,48.72,5.1,27.48,34.0,280.0556,-175.7132,-86.8912,68.2307,59.9323375,10.7183187,0.0
606.300818,-1.029,0.0901,-0.0156,-0.3175,-0.1542,0.3034,0.2353,-0.1756,0.0565,1001.8672,48.6,4.8,27.36,34.0,281.6398,-175.9621,-87.3666,68.2307,59.9323375,10.7183187,0.0
606.321087,-1.0151,0.1051,-0.0064,-0.3175,-0.1542,0.3034,0.2353,-0.1756,0.0565,1001.8672,48.96,5.22,27.9,34.0,281.6398,-175.9621,-87.3666,68.2307,59.9323375,10.7183187,0.0
606.340802,-0.9968,0.1004,0.0064,-0.3175,-0.1542,0.3034,0.2353,-0.1756,0.0565,1001.8672,48.72,5.1,27.54,35.0,281.6398,-175.9621,-87.3666,68.2307,59.9323375,10.7183187,0.0
606.363713,-0.9765,0.088,-0.0044,0.0039,0.2753,0.468,0.2005,0.0296,0.0235,1001.8672,47.88,4.2,26.76,35.0,283.16,-175.8554,-87.6223,68.2307,59.9323375,10.7183187,0.0
606.380564,-0.9616,0.0777,-0.01,0.0039,0.2753,0.468,0.2005,0.0296,0.0235,1001.8667,48.24,4.56,26.52,35.0,283.16,-175.8554,-87.6223,68.2307,59.9323375,10.7183187,0.0
606.40131,-0.9677,0.0738,-0.0051,0.0039,0.2753,0.468,0.2005,0.0296,0.0235,1001.8667,47.94,4.92,26.52,35.0,283.16,-175.8554,-87.6223,68.2307,59.9323375,10.7183187,0.0
606.421263,-0.9936,0.0792,0.0154,0.288,0.0065,0.3625,0.1168,0.0938,0.0052,1001.8667,45.48,2.16,27.54,35.0,283.5385,-175.8095,-87.5813,63.302,59.9323375,10.7183187,0.0
606.441174,-1.0022,0.0757,0.0217,0.288,0.0065,0.3625,0.1168,0.0938,0.0052,1001.8667,44.34,0.54,28.8,35.0,283.5385,-175.8095,-87.5813,63.302,59.9323375,10.7183187,0.0
606.464074,-0.9768,0.0728,-0.0083,0.288,0.0065,0.3625,0.1168,0.0938,0.0052,1001.8667,46.02,2.28,29.76,35.0,283.5385,-175.8095,-87.5813,63.302,59.9323375,10.7183187,0.0
606.481643,-0.9343,0.077,-0.0076,0.1946,-0.0094,0.4228,0.1425,0.2544,0.0247,1001.8755,46.38,2.52,29.04,35.0,281.8311,-175.773,-87.0447,63.302,59.9323375,10.7183187,0.0
606.500537,-0.8722,0.0836,0.0183,0.1946,-0.0094,0.4228,0.1425,0.2544,0.0247,1001.8755,45.54,2.16,27.18,38.0,281.8311,-175.773,-87.0447,63.302,59.9323375,10.7183187,0.0
606.522052,-0.7791,0.0774,0.0149,0.1946,-0.0094,0.4228,0.1425,0.2544,0.0247,1001.8755,45.66,2.64,28.26,38.0,281.8311,-175.773,-87.0447,63.302,59.9323375,10.7183187,0.0
606.540864,-0.6633,0.0689,-0.0059,2.1221,0.0215,0.7925,0.1681,0.1371,0.0675,1001.8755,46.5,2.88,30.96,41.0,280.3025,-175.6875,-86.2097,63.302,59.9323375,10.7183187,0.0
606.562327,-0.5544,0.0608,-0.0293,2.1221,0.0215,0.7925,0.1681,0.1371,0.0675,1001.8755,47.22,2.88,31.02,41.0,280.3025,-175.6875,-86.2097,63.302,59.9323375,10.7183187,0.0
606.580887,-0.4688,0.0491,-0.0425,2.1221,0.0215,0.7925,0.1681,0.1371,0.0675,1001.8687,47.76,3.42,29.58,41.0,280.3025,-175.6875,-86.2097,63.302,59.9323375,10.7183187,0.0
606.600781,-0.4312,0.0308,-0.0613,5.1489,-0.3149,0.3601,0.0973,0.5544,0.1762,1001.8687,47.34,3.42,29.46,41.0,279.4508,-175.3434,-85.4425,63.302,59.9323375,10.7183187,0.0
606.62026,-0.4363,0.0176,-0.0921,5.1489,-0.3149,0.3601,0.0973,0.5544,0.1762,1001.8687,47.76,4.14,29.82,41.0,279.4508,-175.3434,-85.4425,63.302,59.9323375,10.7183187,0.0
606.642109,-0.4996,0.0171,-0.14,5.1489,-0.3149,0.3601,0.0973,0.5544,0.1762,1001.8687,48.12,5.34,29.82,41.0,279.4508,-175.3434,-85.4425,63.302,59.9323375,10.7183187,0.0
606.660707,-0.6101,0.0237,-0.1832,4.7795,-0.7072,-0.0375,0.1193,1.5232,0.0767,1001.8687,47.04,3.42,31.56,41.0,277.7764,-174.8822,-82.1478,63.302,59.9323375,10.7183187,0.0
606.680803,-0.7242,0.0357,-0.2089,4.7795,-0.7072,-0.0375,0.1193,1.5232,0.0767,1001.8833,46.44,2.16,33.72,41.0,277.7764,-174.8822,-82.1478,63.302,59.9323375,10.7183187,0.0
606.700723,-0.8419,0.0474,-0.2179,4.7795,-0.7072,-0.0375,0.1193,1.5232,0.0767,1001.8833,46.68,2.88,35.16,41.0,277.7764,-174.8822,-82.1478,63.302,59.9323375,10.7183187,0.0
606.721171,-0.9272,0.074,-0.2025,1.2226,-0.4408,0.2321,0.0057,1.8103,0.0461,1001.8833,46.68,3.06,36.12,41.0,276.4788,-174.7035,-75.9671,61.9728,59.9323375,10.7183187,0.0
606.740506,-0.8815,0.1151,-0.214,1.2226,-0.4408,0.2321,0.0057,1.8103,0.0461,1001.8833,46.44,3.24,37.08,41.0,276.4788,-174.7035,-75.9671,61.9728,59.9323375,10.7183187,0.0
606.767386,-0.7562,0.1156,-0.2739,0.626,0.2021,0.9816,0.0057,1.8103,0.0461,1001.8833,47.28,4.86,39.84,41.0,276.5704,-174.5843,-71.6167,61.9728,59.9323375,10.7183187,0.0
606.780931,-0.6924,0.0987,-0.3112,0.626,0.2021,0.9816,0.1822,0.4505,0.161,1001.8853,47.28,4.86,39.84,41.0,276.5704,-174.5843,-71.6167,61.9728,59.9323375,10.7183187,0.0
606.800496,-0.7273,0.0848,-0.3352,0.626,0.2021,0.9816,0.1822,0.4505,0.161,1001.8853,46.26,4.74,40.26,41.0,276.5704,-174.5843,-71.6167,61.9728,59.9323375,10.7183187,0.0
606.821051,-0.8148,0.0931,-0.3379,0.626,0.2021,0.9816,0.1822,0.4505,0.161,1001.8853,45.66,4.08,41.1,41.0,276.5704,-174.5843,-71.6167,61.9728,59.9323375,10.7183187,0.0
606.841211,-0.8468,0.1273,-0.3621,1.1697,-0.0633,0.0668,-0.0078,0.8677,-0.0315,1001.8853,45.72,3.6,41.88,41.0,276.5881,-174.2912,-69.7467,61.9728,59.9323375,10.7183187,0.0
606.864382,-0.8534,0.117,-0.4178,1.1697,-0.0633,0.0668,-0.0078,0.8677,-0.0315,1001.8853,45.66,3.72,42.18,41.0,276.5881,-174.2912,-69.7467,61.9728,59.9323375,10.7183187,0.0
606.88095,-0.8974,0.0838,-0.4603,1.1697,-0.0633,0.0668,-0.0078,0.8677,-0.0315,1001.8691,45.54,4.08,42.96,41.0,276.5881,-174.2912,-69.7467,61.9728,59.9323375,10.7183187,0.0
606.900664,-0.9597,0.0562,-0.4827,0.0903,-0.1155,-0.4662,-0.0536,1.6368,-0.1048,1001.8691,45.6,5.04,43.92,38.0,277.7665,-174.519,-65.5234,61.9728,59.9323375,10.7183187,0.0
606.920692,-0.9895,0.0557,-0.4864,0.0903,-0.1155,-0.4662,-0.0536,1.6368,-0.1048,1001.8691,44.4,4.5,46.62,38.0,277.7665,-174.519,-65.5234,61.9728,59.9323375,10.7183187,0.0
606.941159,-0.9624,0.0564,-0.4957,0.0903,-0.1155,-0.4662,-0.0536,1.6368,-0.1048,1001.8691,43.14,3.24,49.62,38.0,277.7665,-174.519,-65.5234,61.9728,59.9323375,10.7183187,0.0
606.961725,-0.913,0.0447,-0.5431,-0.9082,-0.3078,-0.0839,-0.122,0.6881,-0.2392,1001.8691,42.9,3.78,50.4,38.0,279.3777,-174.9638,-60.7453,61.9728,59.9323375,10.7183187,0.0
606.981328,-0.904,0.0381,-0.5847,-0.9082,-0.3078,-0.0839,-0.122,0.6881,-0.2392,1001.8748,42.06,4.44,50.28,38.0,279.3777,-174.9638,-60.7453,61.9728,59.9323375,10.7183187,0.0
607.000893,-0.9409,0.0501,-0.6027,-0.9082,-0.3078,-0.0839,-0.122,0.6881,-0.2392,1001.8748,41.4,4.62,50.82,38.0,279.3777,-174.9638,-60.7453,61.9728,59.9323375,10.7183187,0.0
607.020706,-0.9751,0.0789,-0.5844,-0.7769,-0.2852,-0.9798,0.1016,0.2483,-0.0296,1001.8748,42.12,5.1,51.42,38.0,281.3997,-175.4614,-59.7354,66.6063,59.9323375,10.7183187,0.0
607.040482,-0.979,0.0997,-0.6042,-0.7769,-0.2852,-0.9798,0.1016,0.2483,-0.0296,1001.8748,42.3,5.04,51.0,35.0,281.3997,-175.4614,-59.7354,66.6063,59.9323375,10.7183187,0.0
607.061208,-0.9628,0.0862,-0.6411,-0.7769,-0.2852,-0.9798,0.1016,0.2483,-0.0296,1001.8748,41.88,4.44,52.08,35.0,281.3997,-175.4614,-59.7354,66.6063,59.9323375,10.7183187,0.0
607.081157,-0.956,0.0586,-0.6941,-1.1093,0.1104,-1.1545,0.0612,0.489,-0.0229,1001.8665,41.88,4.5,53.4,35.0,282.9338,-175.7031,-58.3715,66.6063,59.9323375,10.7183187,0.0
607.101599,-0.9665,0.055,-0.6968,-1.1093,0.1104,-1.1545,0.0612,0.489,-0.0229,1001.8665,42.24,5.88,52.8,35.0,282.9338,-175.7031,-58.3715,66.6063,59.9323375,10.7183187,0.0
607.122205,-0.9839,0.0603,-0.6809,-1.1093,0.1104,-1.1545,0.0612,0.489,-0.0229,1001.8665,42.3,6.42,52.56,35.0,282.9338,-175.7031,-58.3715,66.6063,59.9323375,10.7183187,0.0
607.140571,-1.0058,0.0633,-0.698,-1.5051,-0.1019,-1.243,-0.1373,0.6454,-0.183,1001.8665,41.94,5.82,53.64,34.0,284.4205,-175.9461,-56.2834,66.6063,59.9323375,10.7183187,0.0
607.161241,-1.0229,0.0655,-0.7251,-1.5051,-0.1019,-1.243,-0.1373,0.6454,-0.183,1001.8665,40.92,6.0,54.78,34.0,284.4205,-175.9461,-56.2834,66.6063,59.9323375,10.7183187,0.0
607.182665,-1.0256,0.055,-0.7317,-1.5051,-0.1019,-1.243,-0.1373,0.6454,-0.183,1001.8811,40.02,5.4,56.04,34.0,284.4205,-175.9461,-56.2834,66.6063,59.9323375,10.7183187,0.0
607.200766,-1.0242,0.0401,-0.742,-2.0345,-0.1217,-1.5615,0.0344,0.0046,0.0211,1001.8811,40.32,5.58,55.86,34.0,285.2399,-176.1386,-55.0186,66.6063,59.9323375,10.7183187,0.0
607.221595,-1.0256,0.0318,-0.7728,-2.0345,-0.1217,-1.5615,0.0344,0.0046,0.0211,1001.8811,40.32,6.36,54.96,34.0,285.2399,-176.1386,-55.0186,66.6063,59.9323375,10.7183187,0.0
607.241753,-1.0567,0.0425,-0.7987,-2.0345,-0.1217,-1.5615,0.0344,0.0046,0.0211,1001.8811,40.38,6.18,55.68,34.0,285.2399,-176.1386,-55.0186,66.6063,59.9323375,10.7183187,0.0
607.263638,-1.1148,0.0591,-0.8001,-2.2771,-0.2556,-2.3078,-0.1006,-0.0797,-0.0944,1001.8811,40.8,6.66,55.2,34.0,285.3491,-176.0697,-55.6584,66.6063,59.9323375,10.7183187,0.0
607.280459,-1.1695,0.0745,-0.8199,-2.2771,-0.2556,-2.3078,-0.1006,-0.0797,-0.0944,1001.8987,41.1,6.84,54.36,34.0,285.3491,-176.0697,-55.6584,66.6063,59.9323375,10.7183187,0.0
607.301331,-1.2233,0.0855,-0.8641,-2.2771,-0.2556,-2.3078,-0.1006,-0.0797,-0.0944,1001.8987,40.92,6.24,54.9,34.0,285.3491,-176.0697,-55.6584,66.6063,59.9323375,10.7183187,0.0
607.321206,-1.2848,0.0779,-0.901,-3.9364,0.1592,-2.9117,-0.0231,0.1536,0.1023,1001.8987,40.92,5.76,55.74,34.0,285.7792,-176.0309,-55.3883,64.8839,59.9323375,10.7183187,0.0
607.34086,-1.3606,0.0777,-0.9308,-3.9364,0.1592,-2.9117,-0.0231,0.1536,0.1023,1001.8987,40.86,5.64,55.74,34.0,285.7792,-176.0309,-55.3883,64.8839,59.9323375,10.7183187,0.0
607.366582,-1.437,0.0821,-0.9606,-5.3189,0.0158,-3.5205,-0.0896,-0.0614,0.0058,1001.8984,40.62,5.88,56.04,34.0,284.7614,-175.64,-55.0491,64.8839,59.9323375,10.7183187,0.0
607.380895,-1.4815,0.0945,-0.9636,-5.3189,0.0158,-3.5205,-0.0896,-0.0614,0.0058,1001.8984,40.62,5.88,56.04,34.0,284.7614,-175.64,-55.0491,64.8839,59.9323375,10.7183187,0.0
607.400918,-1.437,0.096,-0.9299,-5.3189,0.0158,-3.5205,-0.0896,-0.0614,0.0058,1001.8984,41.28,6.12,55.98,34.0,284.7614,-175.64,-55.0491,64.8839,59.9323375,10.7183187,0.0
607.425737,-1.3229,0.0828,-0.8595,-5.3189,0.0158,-3.5205,-0.0896,-0.0614,0.0058,1001.8984,40.8,5.88,55.74,34.0,284.7614,-175.64,-55.0491,64.8839,59.9323375,10.7183187,0.0
607.441096,-1.2382,0.0743,-0.8341,-4.8859,0.0581,-2.9156,0.0857,-0.4139,0.0767,1001.8984,40.26,5.52,55.98,34.0,284.9062,-175.5928,-55.7173,64.8839,59.9323375,10.7183187,0.0
607.462516,-1.1747,0.0748,-0.8092,-4.8859,0.0581,-2.9156,0.0857,-0.4139,0.0767,1001.8984,40.86,5.76,55.62,34.0,284.9062,-175.5928,-55.7173,64.8839,59.9323375,10.7183187,0.0
607.481241,-1.1224,0.0843,-0.7642,-4.8859,0.0581,-2.9156,0.0857,-0.4139,0.0767,1001.8967,41.4,4.92,56.16,34.0,284.9062,-175.5928,-55.7173,64.8839,59.9323375,10.7183187,0.0
607.501064,-1.0713,0.0906,-0.6907,-2.7575,0.0519,-2.2317,-0.0505,-0.3497,0.0577,1001.8967,40.98,5.16,55.92,34.0,284.7821,-175.4725,-57.4651,64.8839,59.9323375,10.7183187,0.0
607.527097,-1.0286,0.1014,-0.6479,-2.7575,0.0519,-2.2317,-0.0505,-0.3497,0.0577,1001.8967,41.28,5.88,54.3,34.0,284.7821,-175.4725,-57.4651,64.8839,59.9323375,10.7183187,0.0
607.548332,-1.0024,0.098,-0.6394,-1.7801,0.1684,-1.192,-0.1055,-0.0651,0.062,1001.8967,41.7,5.7,53.22,34.0,283.468,-175.1729,-58.1422,64.8839,59.9323375,10.7183187,0.0
607.562634,-0.9983,0.0723,-0.644,-1.7801,0.1684,-1.192,-0.1055,-0.0651,0.062,1001.8967,41.7,5.7,53.22,34.0,283.468,-175.1729,-58.1422,64.8839,59.9323375,10.7183187,0.0
607.58067,-1.0019,0.0472,-0.6548,-1.7801,0.1684,-1.192,-0.1055,-0.0651,0.062,1001.8789,41.28,5.64,52.98,34.0,283.468,-175.1729,-58.1422,64.8839,59.9323375,10.7183187,0.0
607.601029,-0.9907,0.0315,-0.6492,-1.7801,0.1684,-1.192,-0.1055,-0.0651,0.062,1001.8789,42.0,5.64,53.04,34.0,283.468,-175.1729,-58.1422,64.8839,59.9323375,10.7183187,0.0
607.623937,-0.9675,0.0291,-0.6279,-1.4218,-0.5788,-1.1937,-0.1159,0.1225,0.0217,1001.8789,42.36,6.06,52.62,34.0,282.3136,-174.8067,-58.0514,79.7809,59.9323375,10.7183187,0.0
607.640508,-0.9413,0.0525,-0.6088,-1.4218,-0.5788,-1.1937,-0.1159,0.1225,0.0217,1001.8789,41.88,5.22,52.98,34.0,282.3136,-174.8067,-58.0514,79.7809,59.9323375,10.7183187,0.0
607.663019,-0.9172,0.077,-0.604,-1.4218,-0.5788,-1.1937,-0.1159,0.1225,0.0217,1001.8789,41.4,4.8,53.16,34.0,282.3136,-174.8067,-58.0514,79.7809,59.9323375,10.7183187,0.0
607.680871,-0.9008,0.065,-0.5839,-0.6967,-0.1611,-0.7628,0.0038,-0.3283,0.1298,1001.8918,42.0,4.92,52.5,34.0,281.5934,-174.6448,-58.1252,79.7809,59.9323375,10.7183187,0.0
607.701558,-0.8915,0.0474,-0.5534,-0.6967,-0.1611,-0.7628,0.0038,-0.3283,0.1298,1001.8918,43.08,5.7,51.6,34.0,281.5934,-174.6448,-58.1252,79.7809,59.9323375,10.7183187,0.0
607.724132,-0.8937,0.0818,-0.5121,-0.6967,-0.1611,-0.7628,0.0038,-0.3283,0.1298,1001.8918,42.84,5.16,51.96,34.0,281.5934,-174.6448,-58.1252,79.7809,59.9323375,10.7183187,0.0
607.740457,-0.8932,0.127,-0.5011,-0.3081,-0.2173,-0.1477,-0.0273,-0.9258,0.0718,1001.8918,41.88,3.54,51.78,35.0,279.5452,-174.0336,-60.0403,79.7809,59.9323375,10.7183187,0.0
607.763296,-0.872,0.1126,-0.4891,-0.3081,-0.2173,-0.1477,-0.0273,-0.9258,0.0718,1001.8918,41.82,3.0,50.4,35.0,279.5452,-174.0336,-60.0403,79.7809,59.9323375,10.7183187,0.0
607.780529,-0.8326,0.0687,-0.438,-0.3081,-0.2173,-0.1477,-0.0273,-0.9258,0.0718,1001.8892,42.18,2.4,50.82,35.0,279.5452,-174.0336,-60.0403,79.7809,59.9323375,10.7183187,0.0
607.800786,-0.8324,0.0745,-0.4156,0.5489,-0.3974,0.0872,-0.02,-0.8213,0.106,1001.8892,43.02,2.94,50.64,35.0,277.6087,-173.7353,-63.3,79.7809,59.9323375,10.7183187,0.0
607.824614,-0.8551,0.1214,-0.4219,0.5489,-0.3974,0.0872,-0.02,-0.8213,0.106,1001.8892,44.1,3.06,49.98,35.0,277.6087,-173.7353,-63.3,79.7809,59.9323375,10.7183187,0.0
607.842177,-0.8571,0.1349,-0.4041,0.5489,-0.3974,0.0872,-0.02,-0.8213,0.106,1001.8892,44.4,2.82,48.54,35.0,277.6087,-173.7353,-63.3,79.7809,59.9323375,10.7183187,0.0
607.862218,-0.8094,0.1202,-0.3569,0.493,0.2352,0.0299,-0.1953,-0.6894,0.0357,1001.8892,44.46,4.2,46.02,35.0,276.7596,-173.6395,-65.8344,79.7809,59.9323375,10.7183187,0.0
607.880759,-0.7566,0.0938,-0.3347,0.493,0.2352,0.0299,-0.1953,-0.6894,0.0357,1001.8704,44.88,4.62,44.94,35.0,276.7596,-173.6395,-65.8344,79.7809,59.9323375,10.7183187,0.0
607.900459,-0.7019,0.0662,-0.331,0.493,0.2352,0.0299,-0.1953,-0.6894,0.0357,1001.8704,45.42,3.96,44.16,36.0,276.7596,-173.6395,-65.8344,79.7809,59.9323375,10.7183187,0.0
607.922709,-0.6631,0.043,-0.3232,2.1757,-0.4919,0.3453,-0.1477,-0.9807,0.0125,1001.8704,45.42,3.0,43.14,36.0,274.9381,-173.3202,-68.3754,80.4516,59.9323375,10.7183187,0.0
607.940575,-0.6328,0.0215,-0.2954,2.1757,-0.4919,0.3453,-0.1477,-0.9807,0.0125,1001.8704,44.4,1.5,42.78,36.0,274.9381,-173.3202,-68.3754,80.4516,59.9323375,10.7183187,0.0
607.968463,-0.6181,0.0569,-0.2712,3.0504,-0.9536,0.1419,-0.1367,-0.9282,-0.0736,1001.8696,45.72,1.62,41.4,36.0,273.1643,-173.1818,-71.8298,80.4516,59.9323375,10.7183187,0.0
607.981426,-0.6025,0.087,-0.256,3.0504,-0.9536,0.1419,-0.1367,-0.9282,-0.0736,1001.8696,45.72,1.62,41.4,36.0,273.1643,-173.1818,-71.8298,80.4516,59.9323375,10.7183187,0.0
608.000628,-0.5742,0.0789,-0.2436,3.0504,-0.9536,0.1419,-0.1367,-0.9282,-0.0736,1001.8696,46.2,2.16,40.2,36.0,273.1643,-173.1818,-71.8298,80.4516,59.9323375,10.7183187,0.0
608.020921,-0.5592,0.0425,-0.2216,3.0504,-0.9536,0.1419,-0.1367,-0.9282,-0.0736,1001.8696,44.64,0.96,39.54,36.0,273.1643,-173.1818,-71.8298,80.4516,59.9323375,10.7183187,0.0
608.040877,-0.581,0.0279,-0.2003,3.9114,-0.7973,0.3753,-0.2045,-0.734,0.0944,1001.8696,44.52,0.66,39.9,36.0,270.7465,-172.8896,-74.8276,80.4516,59.9323375,10.7183187,0.0
608.060761,-0.6184,0.0518,-0.1769,3.9114,-0.7973,0.3753,-0.2045,-0.734,0.0944,1001.8696,46.32,1.92,38.82,36.0,270.7465,-172.8896,-74.8276,80.4516,59.9323375,10.7183187,0.0
608.081632,-0.6421,0.0691,-0.1632,3.9114,-0.7973,0.3753,-0.2045,-0.734,0.0944,1001.8796,46.8,1.62,37.8,36.0,270.7465,-172.8896,-74.8276,80.4516,59.9323375,10.7183187,0.0
608.101585,-0.657,0.0733,-0.152,3.2083,-0.5213,0.5155,-0.1917,-0.847,-0.1439,1001.8796,47.04,1.98,37.26,36.0,270.9581,-172.9778,-77.4507,80.4516,59.9323375,10.7183187,0.0
608.121343,-0.6794,0.0836,-0.1473,3.2083,-0.5213,0.5155,-0.1917,-0.847,-0.1439,1001.8796,46.74,2.46,36.48,36.0,270.9581,-172.9778,-77.4507,80.4516,59.9323375,10.7183187,0.0
608.143209,-0.731,0.1175,-0.1454,3.2083,-0.5213,0.5155,-0.1917,-0.847,-0.1439,1001.8796,47.04,2.94,35.16,36.0,270.9581,-172.9778,-77.4507,80.4516,59.9323375,10.7183187,0.0
608.161905,-0.8077,0.13,-0.1417,2.4417,-0.0073,0.1764,-0.141,-0.8121,-0.0987,1001.8796,47.58,3.54,33.78,36.0,272.8823,-173.2132,-80.5376,80.4516,59.9323375,10.7183187,0.0
608.180921,-0.9057,0.1361,-0.1173,2.4417,-0.0073,0.1764,-0.141,-0.8121,-0.0987,1001.8887,47.4,2.82,32.7,36.0,272.8823,-173.2132,-80.5376,80.4516,59.9323375,10.7183187,0.0
608.201784,-0.9787,0.1148,-0.077,2.4417,-0.0073,0.1764,-0.141,-0.8121,-0.0987,1001.8887,48.0,2.64,32.1,36.0,272.8823,-173.2132,-80.5376,80.4516,59.9323375,10.7183187,0.0
608.220526,-0.9687,0.0777,-0.0454,0.0694,-0.0115,0.489,-0.2705,-0.332,-0.0638,1001.8887,48.06,2.4,32.16,36.0,276.0042,-173.3432,-82.6674,80.4516,59.9323375,10.7183187,0.0
608.240981,-0.9247,0.0503,-0.0669,0.0694,-0.0115,0.489,-0.2705,-0.332,-0.0638,1001.8887,47.94,1.86,31.74,36.0,276.0042,-173.3432,-82.6674,77.6505,59.9323375,10.7183187,0.0
608.261834,-0.9345,0.0501,-0.0665,0.0694,-0.0115,0.489,-0.2705,-0.332,-0.0638,1001.8887,48.24,2.1,31.62,36.0,276.0042,-173.3432,-82.6674,77.6505,59.9323375,10.7183187,0.0
608.280992,-0.9631,0.0657,-0.0244,0.5361,-0.6142,0.334,-0.0542,-0.5446,-0.0583,1001.8782,48.06,2.22,31.14,36.0,278.3374,-173.5299,-84.1972,77.6505,59.9323375,10.7183187,0.0
608.301287,-0.9587,0.0828,0.0178,0.5361,-0.6142,0.334,-0.0542,-0.5446,-0.0583,1001.8782,47.88,2.46,30.12,36.0,278.3374,-173.5299,-84.1972,77.6505,59.9323375,10.7183187,0.0
608.321161,-0.9272,0.0838,0.0022,0.5361,-0.6142,0.334,-0.0542,-0.5446,-0.0583,1001.8782,47.88,3.12,30.12,36.0,278.3374,-173.5299,-84.1972,77.6505,59.9323375,10.7183187,0.0
608.342495,-0.9272,0.0987,-0.0486,0.6391,-0.2319,0.7132,0.0698,-0.503,-0.0907,1001.8782,47.52,3.36,29.88,36.0,281.2462,-173.8351,-85.9322,77.6505,59.9323375,10.7183187,0.0
608.361051,-0.9909,0.1312,-0.0418,0.6391,-0.2319,0.7132,0.0698,-0.503,-0.0907,1001.8782,46.74,2.88,28.92,36.0,281.2462,-173.8351,-85.9322,77.6505,59.9323375,10.7183187,0.0
608.380819,-1.0637,0.1461,-0.0195,0.6391,-0.2319,0.7132,0.0698,-0.503,-0.0907,1001.8342,46.98,3.42,28.98,36.0,281.2462,-173.8351,-85.9322,77.6505,59.9323375,10.7183187,0.0
608.401079,-1.1016,0.1244,-0.0259,-0.6884,0.4159,0.3951,0.005,0.2746,0.0315,1001.8342,48.06,4.38,28.74,36.0,282.5257,-174.054,-86.5521,77.6505,59.9323375,10.7183187,0.0
608.421891,-1.0593,0.0867,-0.0352,-0.6884,0.4159,0.3951,0.005,0.2746,0.0315,1001.8342,48.36,4.02,27.78,36.0,282.5257,-174.054,-86.5521,77.6505,59.9323375,10.7183187,0.0
608.440538,-0.9941,0.0694,-0.0574,-0.6884,0.4159,0.3951,0.005,0.2746,0.0315,1001.8342,47.82,3.36,29.28,36.0,282.5257,-174.054,-86.5521,77.6505,59.9323375,10.7183187,0.0
608.462572,-0.9614,0.0777,-0.0804,-0.0192,-0.3539,0.1874,0.0643,0.0571,-0.0101,1001.8342,46.74,1.98,31.2,36.0,281.118,-173.9484,-85.5891,77.6505,59.9323375,10.7183187,0.0
608.48019,-0.9765,0.0919,-0.0652,-0.0192,-0.3539,0.1874,0.0643,0.0571,-0.0101,1001.865,47.1,1.98,30.12,36.0,281.118,-173.9484,-85.5891,77.6505,59.9323375,10.7183187,0.0
608.500919,-0.997,0.0752,-0.0445,-0.0192,-0.3539,0.1874,0.0643,0.0571,-0.0101,1001.865,47.82,3.18,29.1,37.0,281.118,-173.9484,-85.5891,77.6505,59.9323375,10.7183187,0.0
608.521059,-1.0249,0.0567,-0.0322,-0.0417,-0.2861,0.2436,0.0545,-0.1139,-0.0089,1001.865,47.76,3.18,29.1,37.0,281.8009,-174.0091,-86.006,71.0688,59.9323375,10.7183187,0.0
608.540235,-1.0496,0.0623,-0.0156,-0.0417,-0.2861,0.2436,0.0545,-0.1139,-0.0089,1001.865,47.7,2.94,29.7,37.0,281.8009,-174.0091,-86.006,71.0688,59.9323375,10.7183187,0.0
608.570743,-1.0523,0.0787,-0.0176,-0.5518,-0.3906,0.4931,0.0545,-0.1139,-0.0089,1001.8557,48.0,3.3,29.1,37.0,282.3689,-174.1408,-86.2012,71.0688,59.9323375,10.7183187,0.0
608.580938,-1.0188,0.0884,-0.0379,-0.5518,-0.3906,0.4931,0.1107,-0.0205,0.0076,1001.8557,48.0,3.3,29.1,37.0,282.3689,-174.1408,-86.2012,71.0688,59.9323375,10.7183187,0.0
608.600858,-0.9858,0.0906,-0.0349,-0.5518,-0.3906,0.4931,0.1107,-0.0205,0.0076,1001.8557,47.82,3.6,28.86,37.0,282.3689,-174.1408,-86.2012,71.0688,59.9323375,10.7183187,0.0
608.620782,-0.9775,0.0985,-0.0144,-0.5518,-0.3906,0.4931,0.1107,-0.0205,0.0076,1001.8557,48.06,4.32,27.24,37.0,282.3689,-174.1408,-86.2012,71.0688,59.9323375,10.7183187,0.0
608.643125,-0.9792,0.0977,0.0115,0.1586,-0.0234,0.4602,0.1162,-0.1463,0.007,1001.8557,48.42,3.96,27.78,37.0,283.4323,-174.2161,-86.4657,71.0688,59.9323375,10.7183187,0.0
608.660426,-0.9668,0.1031,0.0139,0.1586,-0.0234,0.4602,0.1162,-0.1463,0.007,1001.8557,47.7,3.06,28.92,37.0,283.4323,-174.2161,-86.4657,71.0688,59.9323375,10.7183187,0.0
608.68264,-0.9284,0.1019,0.0046,0.2691,0.0239,0.6517,0.1046,0.0528,0.0211,1001.8643,47.58,3.42,28.5,37.0,284.4532,-174.2269,-86.973,71.0688,59.9323375,10.7183187,0.0
608.700795,-0.8798,0.0914,0.0064,0.2691,0.0239,0.6517,0.1046,0.0528,0.0211,1001.8643,47.58,3.42,28.5,37.0,284.4532,-174.2269,-86.973,71.0688,59.9323375,10.7183187,0.0
608.721788,-0.8436,0.077,0.0164,0.2691,0.0239,0.6517,0.1046,0.0528,0.0211,1001.8643,47.58,3.42,29.76,39.0,284.4532,-174.2269,-86.973,71.0688,59.9323375,10.7183187,0.0
608.746467,-0.8048,0.0684,0.0169,1.4689,-0.2554,0.7556,0.126,0.1842,0.0663,1001.8643,46.74,1.56,30.78,39.0,283.1605,-174.091,-86.5018,71.0688,59.9323375,10.7183187,0.0
608.761245,-0.7459,0.0677,0.0181,1.4689,-0.2554,0.7556,0.126,0.1842,0.0663,1001.8643,46.74,1.56,30.78,39.0,283.1605,-174.091,-86.5018,71.0688,59.9323375,10.7183187,0.0
608.780827,-0.667,0.0713,0.0056,1.4689,-0.2554,0.7556,0.126,0.1842,0.0663,1001.8723,47.16,2.58,28.86,39.0,283.1605,-174.091,-86.5018,71.0688,59.9323375,10.7183187,0.0
608.801627,-0.5981,0.0826,-0.0159,1.4689,-0.2554,0.7556,0.126,0.1842,0.0663,1001.8723,48.06,3.48,28.08,39.0,283.1605,-174.091,-86.5018,71.0688,59.9323375,10.7183187,0.0
608.821221,-0.549,0.0985,-0.0601,3.8621,-0.2427,0.5647,0.1999,0.2837,0.1261,1001.8723,47.88,3.3,28.68,39.0,282.422,-173.8424,-85.7631,65.1798,59.9323375,10.7183187,0.0
608.844346,-0.5355,0.1026,-0.0713,3.8621,-0.2427,0.5647,0.1999,0.2837,0.1261,1001.8723,47.28,2.82,29.16,39.0,282.422,-173.8424,-85.7631,65.1798,59.9323375,10.7183187,0.0
608.861409,-0.5651,0.0662,-0.0354,3.8621,-0.2427,0.5647,0.1999,0.2837,0.1261,1001.8723,47.34,2.64,29.58,42.0,282.422,-173.8424,-85.7631,65.1798,59.9323375,10.7183187,0.0
608.880634,-0.6035,0.0357,-0.0364,4.1451,-0.4945,0.7013,0.1248,0.8928,0.1512,1001.8713,47.52,2.88,30.24,42.0,279.69,-173.3048,-83.8206,65.1798,59.9323375,10.7183187,0.0
608.900495,-0.5964,0.0046,-0.1156,4.1451,-0.4945,0.7013,0.1248,0.8928,0.1512,1001.8713,47.7,3.18,31.14,43.0,279.69,-173.3048,-83.8206,65.1798,59.9323375,10.7183187,0.0
608.927507,-0.5886,-0.0034,-0.1937,3.767,-1.121,0.4257,0.159,1.0913,-0.0235,1001.8713,47.52,2.46,32.64,44.0,274.3739,-173.1688,-80.7916,65.1798,59.9323375,10.7183187,0.0
608.943912,-0.6455,0.0164,-0.1859,3.767,-1.121,0.4257,0.159,1.0913,-0.0235,1001.8713,47.52,2.46,32.64,44.0,274.3739,-173.1688,-80.7916,65.1798,59.9323375,10.7183187,0.0
608.961303,-0.7742,0.0616,-0.1669,3.767,-1.121,0.4257,0.159,1.0913,-0.0235,1001.8713,47.64,3.06,33.3,44.0,274.3739,-173.1688,-80.7916,65.1798,59.9323375,10.7183187,0.0
608.985569,-0.8312,0.1185,-0.1793,1.8685,-0.5572,0.6901,0.0893,1.1787,0.0596,1001.8596,47.22,3.48,35.82,44.0,272.9408,-173.2038,-76.1845,65.1798,59.9323375,10.7183187,0.0
609.00031,-0.8165,0.1647,-0.2861,1.8685,-0.5572,0.6901,0.0893,1.1787,0.0596,1001.8596,47.22,3.48,35.82,44.0,272.9408,-173.2038,-76.1845,65.1798,59.9323375,10.7183187,0.0
609.024529,-0.8138,0.172,-0.3376,1.8685,-0.5572,0.6901,0.0893,1.1787,0.0596,1001.8596,46.2,2.52,37.98,44.0,272.9408,-173.2038,-76.1845,65.1798,59.9323375,10.7183187,0.0
609.040177,-0.8639,0.1368,-0.2934,1.8685,-0.5572,0.6901,0.0893,1.1787,0.0596,1001.8596,45.78,2.04,39.72,44.0,272.9408,-173.2038,-76.1845,65.1798,59.9323375,10.7183187,0.0
609.060672,-0.9496,0.0965,-0.2485,0.807,0.1516,0.085,0.2078,1.0577,0.1439,1001.8596,46.14,2.28,40.32,44.0,272.1363,-173.0355,-72.2945,65.1798,59.9323375,10.7183187,0.0
609.080274,-0.9567,0.0911,-0.2665,0.807,0.1516,0.085,0.2078,1.0577,0.1439,1001.8613,44.64,1.2,43.56,44.0,272.1363,-173.0355,-72.2945,65.1798,59.9323375,10.7183187,0.0
609.101039,-0.8776,0.0831,-0.3462,0.807,0.1516,0.085,0.2078,1.0577,0.1439,1001.8613,43.8,0.84,46.02,41.0,272.1363,-173.0355,-72.2945,65.1798,59.9323375,10.7183187,0.0
609.121611,-0.8519,0.0772,-0.397,0.555,-0.3305,-0.0699,-0.0157,0.3399,-0.1958,1001.8613,44.94,2.34,43.62,41.0,272.4073,-173.2976,-70.0527,67.1526,59.9323375,10.7183187,0.0
609.140866,-0.9081,0.0855,-0.3987,0.555,-0.3305,-0.0699,-0.0157,0.3399,-0.1958,1001.8613,45.3,2.7,42.18,37.0,272.4073,-173.2976,-70.0527,67.1526,59.9323375,10.7183187,0.0
609.167244,-0.9653,0.1121,-0.4002,0.1127,-0.2405,-0.1944,-0.0157,0.3399,-0.1958,1001.874,44.94,3.18,44.28,37.0,274.3117,-173.6861,-67.6091,67.1526,59.9323375,10.7183187,0.0
609.181025,-0.9709,0.1231,-0.4439,0.1127,-0.2405,-0.1944,0.013,1.0424,-0.0473,1001.874,44.94,3.18,44.28,37.0,274.3117,-173.6861,-67.6091,67.1526,59.9323375,10.7183187,0.0
609.201304,-0.9492,0.1085,-0.5057,0.1127,-0.2405,-0.1944,0.013,1.0424,-0.0473,1001.874,45.42,4.62,45.18,37.0,274.3117,-173.6861,-67.6091,67.1526,59.9323375,10.7183187,0.0
609.223723,-0.9565,0.0909,-0.5592,0.1127,-0.2405,-0.1944,0.013,1.0424,-0.0473,1001.874,45.24,4.56,46.68,37.0,274.3117,-173.6861,-67.6091,67.1526,59.9323375,10.7183187,0.0
609.242636,-0.9882,0.0823,-0.5734,-0.62,-0.1626,-1.1871,0.049,1.2312,-0.0522,1001.874,44.64,3.66,47.16,37.0,275.5179,-173.8344,-63.8728,67.1526,59.9323375,10.7183187,0.0
609.261752,-1.011,0.0809,-0.5649,-0.62,-0.1626,-1.1871,0.049,1.2312,-0.0522,1001.874,43.8,4.08,48.36,37.0,275.5179,-173.8344,-63.8728,67.1526,59.9323375,10.7183187,0.0
609.280507,-1.0007,0.0743,-0.5619,-0.62,-0.1626,-1.1871,0.049,1.2312,-0.0522,1001.8896,43.44,4.68,49.74,37.0,275.5179,-173.8344,-63.8728,67.1526,59.9323375,10.7183187,0.0
609.301454,-0.9626,0.0677,-0.5873,-1.3513,-0.2654,-0.6402,-0.0481,0.6784,-0.1524,1001.8896,43.26,4.74,50.64,37.0,277.692,-174.1871,-60.0768,67.1526,59.9323375,10.7183187,0.0
609.320807,-0.9445,0.0618,-0.6245,-1.3513,-0.2654,-0.6402,-0.0481,0.6784,-0.1524,1001.8896,42.6,4.2,51.0,37.0,277.692,-174.1871,-60.0768,67.1526,59.9323375,10.7183187,0.0
609.342147,-0.9755,0.0745,-0.6626,-1.3513,-0.2654,-0.6402,-0.0481,0.6784,-0.1524,1001.8896,42.18,3.9,51.48,37.0,277.692,-174.1871,-60.0768,67.1526,59.9323375,10.7183187,0.0
609.362884,-1.0374,0.0931,-0.6741,-1.1995,-0.226,-1.4584,0.0423,0.2679,0.0278,1001.8896,42.72,4.74,51.66,37.0,279.0367,-174.4044,-58.9433,67.1526,59.9323375,10.7183187,0.0
609.381295,-1.0821,0.0945,-0.6958,-1.1995,-0.226,-1.4584,0.0423,0.2679,0.0278,1001.8789,42.6,5.52,52.08,37.0,279.0367,-174.4044,-58.9433,67.1526,59.9323375,10.7183187,0.0
609.402881,-1.0865,0.0811,-0.7198,-1.1995,-0.226,-1.4584,0.0423,0.2679,0.0278,1001.8789,42.12,5.28,53.04,37.0,279.0367,-174.4044,-58.9433,67.1526,59.9323375,10.7183187,0.0
609.42198,-1.0794,0.0704,-0.7496,-2.4357,-0.1824,-1.7826,0.0673,0.624,0.0785,1001.8789,42.12,4.32,54.24,34.0,279.4445,-174.2808,-57.3036,65.0744,59.9323375,10.7183187,0.0
609.441093,-1.0806,0.0755,-0.7889,-2.4357,-0.1824,-1.7826,0.0673,0.624,0.0785,1001.8789,41.94,4.5,54.42,34.0,279.4445,-174.2808,-57.3036,65.0744,59.9323375,10.7183187,0.0
609.465548,-1.1036,0.0926,-0.8211,-2.5239,-0.2389,-2.24,0.0673,0.624,0.0785,1001.8958,40.98,4.8,55.86,34.0,280.0423,-174.2721,-55.7537,65.0744,59.9323375,10.7183187,0.0
609.480245,-1.148,0.1138,-0.8282,-2.5239,-0.2389,-2.24,-0.0102,0.131,-0.0174,1001.8958,40.98,4.8,55.86,34.0,280.0423,-174.2721,-55.7537,65.0744,59.9323375,10.7183187,0.0
609.50083,-1.2111,0.1273,-0.8417,-2.5239,-0.2389,-2.24,-0.0102,0.131,-0.0174,1001.8958,41.22,4.98,55.38,34.0,280.0423,-174.2721,-55.7537,65.0744,59.9323375,10.7183187,0.0
609.520621,-1.2841,0.1361,-0.8717,-2.5239,-0.2389,-2.24,-0.0102,0.131,-0.0174,1001.8958,41.34,5.28,55.62,34.0,280.0423,-174.2721,-55.7537,65.0744,59.9323375,10.7183187,0.0
609.543484,-1.3874,0.1583,-0.8908,-4.5019,0.3408,-3.0784,0.0246,-0.3424,0.1219,1001.8958,40.38,4.2,56.04,34.0,280.174,-174.1898,-55.9374,65.0744,59.9323375,10.7183187,0.0
609.560801,-1.5199,0.1842,-0.8637,-4.5019,0.3408,-3.0784,0.0246,-0.3424,0.1219,1001.8958,40.68,4.56,55.5,34.0,280.174,-174.1898,-55.9374,65.0744,59.9323375,10.7183187,0.0
609.581355,-1.6208,0.1945,-0.8436,-4.5019,0.3408,-3.0784,0.0246,-0.3424,0.1219,1001.9302,41.4,5.82,54.9,34.0,280.174,-174.1898,-55.9374,65.0744,59.9323375,10.7183187,0.0
609.601439,-1.5905,0.1876,-0.8419,-7.6597,0.8485,-3.0314,-0.1043,-0.6631,0.0577,1001.9302,42.18,6.18,54.84,34.0,278.8673,-173.8105,-57.5158,65.0744,59.9323375,10.7183187,0.0
609.620674,-1.4204,0.1847,-0.7564,-7.6597,0.8485,-3.0314,-0.1043,-0.6631,0.0577,1001.9302,42.78,5.34,55.26,34.0,278.8673,-173.8105,-57.5158,65.0744,59.9323375,10.7183187,0.0
609.642285,-1.244,0.173,-0.7381,-7.6597,0.8485,-3.0314,-0.1043,-0.6631,0.0577,1001.9302,42.54,4.68,54.66,34.0,278.8673,-173.8105,-57.5158,65.0744,59.9323375,10.7183187,0.0
609.661148,-1.1251,0.1512,-0.7293,-3.8169,0.6086,-2.2479,0.0435,-0.244,0.0706,1001.9302,42.18,4.44,53.7,34.0,278.1543,-173.6388,-59.2354,65.0744,59.9323375,10.7183187,0.0
609.68042,-1.0593,0.1405,-0.7053,-3.8169,0.6086,-2.2479,0.0435,-0.244,0.0706,1001.936,42.3,4.44,53.4,34.0,278.1543,-173.6388,-59.2354,65.0744,59.9323375,10.7183187,0.0
609.700987,-1.0225,0.1539,-0.6579,-3.8169,0.6086,-2.2479,0.0435,-0.244,0.0706,1001.936,42.06,3.78,53.82,34.0,278.1543,-173.6388,-59.2354,65.0744,59.9323375,10.7183187,0.0
609.723575,-0.958,0.1561,-0.5935,-1.6939,0.3654,-1.3943,-0.1196,0.6594,0.0864,1001.936,41.58,3.42,54.42,34.0,276.5215,-173.3073,-58.7444,82.3093,59.9323375,10.7183187,0.0
609.742208,-0.8856,0.1356,-0.5622,-1.6939,0.3654,-1.3943,-0.1196,0.6594,0.0864,1001.936,41.34,3.54,54.66,34.0,276.5215,-173.3073,-58.7444,82.3093,59.9323375,10.7183187,0.0
609.761358,-0.8302,0.0867,-0.5475,-1.6939,0.3654,-1.3943,-0.1196,0.6594,0.0864,1001.936,41.4,4.08,54.48,34.0,276.5215,-173.3073,-58.7444,82.3093,59.9323375,10.7183187,0.0
609.780205,-0.808,0.0423,-0.5133,-0.0286,-0.395,0.0095,-0.2625,0.7285,-0.0382,1001.946,41.22,4.44,54.84,34.0,272.6136,-172.7068,-56.4547,82.3093,59.9323375,10.7183187,0.0
609.801101,-0.7996,0.0418,-0.5382,-0.0286,-0.395,0.0095,-0.2625,0.7285,-0.0382,1001.946,40.14,2.88,55.74,34.0,272.6136,-172.7068,-56.4547,82.3093,59.9323375,10.7183187,0.0
609.821206,-0.7972,0.0601,-0.5932,-0.0286,-0.395,0.0095,-0.2625,0.7285,-0.0382,1001.946,39.9,2.28,56.76,34.0,272.6136,-172.7068,-56.4547,82.3093,59.9323375,10.7183187,0.0
609.842375,-0.7813,0.064,-0.6294,0.0092,-0.6146,-0.0219,0.2213,1.2538,0.0773,1001.946,40.44,3.12,57.06,34.0,273.8318,-172.9504,-53.4826,82.3093,59.9323375,10.7183187,0.0
609.861385,-0.7559,0.0645,-0.6382,0.0092,-0.6146,-0.0219,0.2213,1.2538,0.0773,1001.946,40.2,3.9,56.58,34.0,273.8318,-172.9504,-53.4826,82.3093,59.9323375,10.7183187,0.0
609.88076,-0.7354,0.0699,-0.6565,0.0092,-0.6146,-0.0219,0.2213,1.2538,0.0773,1001.949,39.66,4.14,57.66,34.0,273.8318,-172.9504,-53.4826,82.3093,59.9323375,10.7183187,0.0
609.901068,-0.7095,0.0784,-0.6968,0.0017,-0.558,0.0981,0.2421,1.9679,0.4866,1001.949,38.58,3.54,58.98,34.0,275.0652,-172.7198,-47.8204,82.3093,59.9323375,10.7183187,0.0
609.920475,-0.6729,0.0792,-0.7386,0.0017,-0.558,0.0981,0.2421,1.9679,0.4866,1001.949,37.5,3.36,60.12,34.0,275.0652,-172.7198,-47.8204,82.3093,59.9323375,10.7183187,0.0
609.940936,-0.634,0.085,-0.7386,0.0017,-0.558,0.0981,0.2421,1.9679,0.4866,1001.949,34.98,1.98,61.98,34.0,275.0652,-172.7198,-47.8204,82.3093,59.9323375,10.7183187,0.0
609.961608,-0.59,0.088,-0.7339,0.2901,-0.4361,-0.0086,0.3312,1.376,0.2422,1001.949,32.34,-0.3,63.96,34.0,276.207,-172.5635,-41.9737,82.3093,59.9323375,10.7183187,0.0
609.981549,-0.5612,0.0889,-0.7603,0.2901,-0.4361,-0.0086,0.3312,1.376,0.2422,1001.949,33.24,1.26,64.86,34.0,276.207,-172.5635,-41.9737,82.3093,59.9323375,10.7183187,0.0
610.003587,-0.5443,0.0975,-0.7884,0.2901,-0.4361,-0.0086,0.3312,1.376,0.2422,1001.949,34.14,3.24,64.8,34.0,276.207,-172.5635,-41.9737,82.3093,59.9323375,10.7183187,0.0
610.020582,-0.5319,0.0999,-0.8141,0.7202,-0.2207,-0.1023,0.1504,0.6759,0.1023,1001.949,33.6,3.18,64.68,34.0,281.64,-173.1127,-38.4555,84.0158,59.9323375,10.7183187,0.0
610.039957,-0.5189,0.0953,-0.8297,0.7202,-0.2207,-0.1023,0.1504,0.6759,0.1023,1001.949,33.42,3.42,64.32,34.0,281.64,-173.1127,-38.4555,84.0158,59.9323375,10.7183187,0.0
610.065887,-0.5167,0.0953,-0.8387,0.6821,-0.2802,-0.2933,-0.1355,0.4658,0.1298,1001.9241,31.44,1.56,66.42,34.0,282.3222,-172.8891,-36.3492,84.0158,59.9323375,10.7183187,0.0
610.080436,-0.5216,0.095,-0.8566,0.6821,-0.2802,-0.2933,-0.1355,0.4658,0.1298,1001.9241,31.44,1.56,66.42,34.0,282.3222,-172.8891,-36.3492,84.0158,59.9323375,10.7183187,0.0
610.104404,-0.5307,0.1024,-0.8822,0.6821,-0.2802,-0.2933,-0.1355,0.4658,0.1298,1001.9241,31.56,1.02,66.72,34.0,282.3222,-172.8891,-36.3492,84.0158,59.9323375,10.7183187,0.0
610.125699,-0.5358,0.1102,-0.8998,0.5126,-0.2358,-0.772,0.0044,-0.4835,-0.098,1001.9241,30.72,1.26,65.94,35.0,281.8176,-172.7419,-35.9641,84.0158,59.9323375,10.7183187,0.0
610.141402,-0.5399,0.1102,-0.9025,0.5126,-0.2358,-0.772,0.0044,-0.4835,-0.098,1001.9241,30.72,1.26,65.94,35.0,281.8176,-172.7419,-35.9641,84.0158,59.9323375,10.7183187,0.0
610.161761,-0.5495,0.107,-0.9003,0.5126,-0.2358,-0.772,0.0044,-0.4835,-0.098,1001.9241,31.02,1.92,65.28,35.0,281.8176,-172.7419,-35.9641,84.0158,59.9323375,10.7183187,0.0
610.181247,-0.5622,0.1051,-0.9054,0.5126,-0.2358,-0.772,0.0044,-0.4835,-0.098,1001.9241,31.62,1.92,65.16,35.0,281.8176,-172.7419,-35.9641,84.0158,59.9323375,10.7183187,0.0
610.201956,-0.5742,0.107,-0.9115,0.5486,-0.1991,-1.26,-0.1733,-1.0369,-0.1268,1001.9241,32.22,0.96,65.04,35.0,282.0161,-172.8031,-38.51,84.0158,59.9323375,10.7183187,0.0
610.220538,-0.5785,0.1036,-0.9047,0.5486,-0.1991,-1.26,-0.1733,-1.0369,-0.1268,1001.9241,32.94,0.96,64.14,35.0,282.0161,-172.8031,-38.51,84.0158,59.9323375,10.7183187,0.0
610.241607,-0.5724,0.0938,-0.8671,0.5486,-0.1991,-1.26,-0.1733,-1.0369,-0.1268,1001.9241,33.6,1.32,63.06,35.0,282.0161,-172.8031,-38.51,84.0158,59.9323375,10.7183187,0.0
610.261582,-0.5842,0.055,-0.7158,0.8209,-0.3282,-1.1995,-0.1721,-0.4585,-0.1268,1001.9241,34.14,1.38,62.04,35.0,280.5331,-172.6911,-41.3863,84.0158,59.9323375,10.7183187,0.0
610.281712,-0.5976,0.044,-0.6135,0.8209,-0.3282,-1.1995,-0.1721,-0.4585,-0.1268,1001.9119,35.1,2.28,61.5,35.0,280.5331,-172.6911,-41.3863,84.0158,59.9323375,10.7183187,0.0
610.301262,-0.6626,0.0877,-0.5285,0.8209,-0.3282,-1.1995,-0.1721,-0.4585,-0.1268,1001.9119,35.82,1.98,61.68,35.0,280.5331,-172.6911,-41.3863,84.0158,59.9323375,10.7183187,0.0
610.320922,-0.7151,0.1253,-0.5468,0.1805,-0.3802,1.8987,-0.6199,-1.3748,-0.7908,1001.9119,36.0,1.62,61.26,35.0,279.5764,-172.7376,-43.3182,76.8557,59.9323375,10.7183187,0.0
610.343532,-0.7293,0.1397,-0.6323,0.1805,-0.3802,1.8987,-0.6199,-1.3748,-0.7908,1001.9119,35.46,1.56,59.76,35.0,279.5764,-172.7376,-43.3182,76.8557,59.9323375,10.7183187,0.0
610.361241,-0.6687,0.109,-0.6438,0.1805,-0.3802,1.8987,-0.6199,-1.3748,-0.7908,1001.9119,35.52,0.66,58.68,35.0,279.5764,-172.7376,-43.3182,76.8557,59.9323375,10.7183187,0.0
610.381855,-0.5817,0.0691,-0.5678,0.9019,-0.0893,-0.0438,-0.0292,-1.7242,0.0333,1001.8997,37.26,1.02,57.6,35.0,279.4196,-173.2236,-49.9566,76.8557,59.9323375,10.7183187,0.0
610.40101,-0.5128,0.0547,-0.4832,0.9019,-0.0893,-0.0438,-0.0292,-1.7242,0.0333,1001.8997,39.24,2.04,56.22,35.0,279.4196,-173.2236,-49.9566,76.8557,59.9323375,10.7183187,0.0
610.421872,-0.4666,0.0327,-0.4385,0.9019,-0.0893,-0.0438,-0.0292,-1.7242,0.0333,1001.8997,40.32,1.68,54.66,35.0,279.4196,-173.2236,-49.9566,76.8557,59.9323375,10.7183187,0.0
610.44214,-0.4529,0.0344,-0.442,3.3332,-0.9062,1.3732,-0.0023,-1.1438,0.1695,1001.8997,40.2,1.02,53.64,35.0,277.1027,-172.8124,-54.3494,76.8557,59.9323375,10.7183187,0.0
610.461224,-0.4652,0.0596,-0.4666,3.3332,-0.9062,1.3732,-0.0023,-1.1438,0.1695,1001.8997,40.68,1.02,52.74,35.0,277.1027,-172.8124,-54.3494,76.8557,59.9323375,10.7183187,0.0
